Trigger.started,Trigger.stopped,key_resp_4.keys,key_resp_4.rt,key_resp_4.duration,mouse.x,mouse.y,mouse.leftButton,mouse.midButton,mouse.rightButton,Session,Subject,date,expName,psychopyVersion,OS,frameRate,complex_block.started,complex_block.stopped,key_resp.keys,key_resp.corr,key_resp.rt,key_resp.duration,complex_block_loop.thisRepN,complex_block_loop.thisTrialN,complex_block_loop.thisN,complex_block_loop.thisIndex,complex_block_loop.ran,trial,finger,markerPos,correctResp,new_block_loop.thisRepN,new_block_loop.thisTrialN,new_block_loop.thisN,new_block_loop.thisIndex,new_block_loop.ran,endBuffer.started,endBuffer.stopped
1E-04,13.7793,space,13.7336,,-0.075665509,-0.385222388,0,0,0,1,beth,2023-09-27_15h43.33.809,Motor_Task,2023.2.2,MacIntel,120.0048002,,,,,,,,,,,,,,,,,,,,,,
,,,,,,,,,,1,beth,2023-09-27_15h43.33.809,Motor_Task,2023.2.2,MacIntel,120.0048002,13.8003,14.5648,2,1,0.7627,,0,0,0,0,1,1,M,,2,,,,,,,
,,,,,,,,,,1,beth,2023-09-27_15h43.33.809,Motor_Task,2023.2.2,MacIntel,120.0048002,14.5655,15.2148,3,1,0.6464,,0,1,1,1,1,2,R,,3,,,,,,,
,,,,,,,,,,1,beth,2023-09-27_15h43.33.809,Motor_Task,2023.2.2,MacIntel,120.0048002,15.2153,15.8329,2,1,0.6119,,0,2,2,2,1,3,M,,2,,,,,,,
,,,,,,,,,,1,beth,2023-09-27_15h43.33.809,Motor_Task,2023.2.2,MacIntel,120.0048002,15.8334,16.3398,3,1,0.5029,,0,3,3,3,1,4,R,,3,,,,,,,
,,,,,,,,,,1,beth,2023-09-27_15h43.33.809,Motor_Task,2023.2.2,MacIntel,120.0048002,16.3404,16.8078,2,0,0.4647,,0,4,4,4,1,5,I,,1,,,,,,,
,,,,,,,,,,1,beth,2023-09-27_15h43.33.809,Motor_Task,2023.2.2,MacIntel,120.0048002,16.8086,17.3994,1,1,0.5881,,0,5,5,5,1,6,I,,1,,,,,,,
,,,,,,,,,,1,beth,2023-09-27_15h43.33.809,Motor_Task,2023.2.2,MacIntel,120.0048002,17.4003,18.2405,3,1,0.8366,,0,6,6,6,1,7,R,,3,,,,,,,
,,,,,,,,,,1,beth,2023-09-27_15h43.33.809,Motor_Task,2023.2.2,MacIntel,120.0048002,18.241,18.7989,2,1,0.5553,,0,7,7,7,1,8,M,,2,,,,,,,
,,,,,,,,,,1,beth,2023-09-27_15h43.33.809,Motor_Task,2023.2.2,MacIntel,120.0048002,18.8006,19.3491,4,1,0.5452,,0,8,8,8,1,9,L,,4,,,,,,,
,,,,,,,,,,1,beth,2023-09-27_15h43.33.809,Motor_Task,2023.2.2,MacIntel,120.0048002,19.3496,19.8902,1,1,0.5395,,0,9,9,9,1,10,I,,1,,,,,,,
,,,,,,,,,,1,beth,2023-09-27_15h43.33.809,Motor_Task,2023.2.2,MacIntel,120.0048002,19.8905,20.4237,2,1,0.5298,,1,0,10,0,1,1,M,,2,,,,,,,
,,,,,,,,,,1,beth,2023-09-27_15h43.33.809,Motor_Task,2023.2.2,MacIntel,120.0048002,20.4242,20.8818,3,1,0.4559,,1,1,11,1,1,2,R,,3,,,,,,,
,,,,,,,,,,1,beth,2023-09-27_15h43.33.809,Motor_Task,2023.2.2,MacIntel,120.0048002,20.883,21.482,2,1,0.5952,,1,2,12,2,1,3,M,,2,,,,,,,
,,,,,,,,,,1,beth,2023-09-27_15h43.33.809,Motor_Task,2023.2.2,MacIntel,120.0048002,21.4826,22.257,3,1,0.7709,,1,3,13,3,1,4,R,,3,,,,,,,
,,,,,,,,,,1,beth,2023-09-27_15h43.33.809,Motor_Task,2023.2.2,MacIntel,120.0048002,22.2577,22.7819,1,1,0.5221,,1,4,14,4,1,5,I,,1,,,,,,,
,,,,,,,,,,1,beth,2023-09-27_15h43.33.809,Motor_Task,2023.2.2,MacIntel,120.0048002,22.7825,23.3315,1,1,0.5473,,1,5,15,5,1,6,I,,1,,,,,,,
,,,,,,,,,,1,beth,2023-09-27_15h43.33.809,Motor_Task,2023.2.2,MacIntel,120.0048002,23.332,23.8809,3,1,0.5459,,1,6,16,6,1,7,R,,3,,,,,,,
,,,,,,,,,,1,beth,2023-09-27_15h43.33.809,Motor_Task,2023.2.2,MacIntel,120.0048002,23.8811,24.4073,2,1,0.5251,,1,7,17,7,1,8,M,,2,,,,,,,
,,,,,,,,,,1,beth,2023-09-27_15h43.33.809,Motor_Task,2023.2.2,MacIntel,120.0048002,24.4088,25.1644,4,1,0.7552,,1,8,18,8,1,9,L,,4,,,,,,,
,,,,,,,,,,1,beth,2023-09-27_15h43.33.809,Motor_Task,2023.2.2,MacIntel,120.0048002,25.1649,25.7914,1,1,0.6207,,1,9,19,9,1,10,I,,1,,,,,,,
,,,,,,,,,,1,beth,2023-09-27_15h43.33.809,Motor_Task,2023.2.2,MacIntel,120.0048002,25.7918,26.4066,2,1,0.6118,,2,0,20,0,1,1,M,,2,,,,,,,
,,,,,,,,,,1,beth,2023-09-27_15h43.33.809,Motor_Task,2023.2.2,MacIntel,120.0048002,26.407,26.8656,3,1,0.4535,,2,1,21,1,1,2,R,,3,,,,,,,
,,,,,,,,,,1,beth,2023-09-27_15h43.33.809,Motor_Task,2023.2.2,MacIntel,120.0048002,26.8661,27.6748,2,1,0.8037,,2,2,22,2,1,3,M,,2,,,,,,,
,,,,,,,,,,1,beth,2023-09-27_15h43.33.809,Motor_Task,2023.2.2,MacIntel,120.0048002,27.6751,28.2406,3,1,0.5598,,2,3,23,3,1,4,R,,3,,,,,,,
,,,,,,,,,,1,beth,2023-09-27_15h43.33.809,Motor_Task,2023.2.2,MacIntel,120.0048002,28.2412,28.7825,1,1,0.5354,,2,4,24,4,1,5,I,,1,,,,,,,
,,,,,,,,,,1,beth,2023-09-27_15h43.33.809,Motor_Task,2023.2.2,MacIntel,120.0048002,28.783,29.315,1,1,0.5287,,2,5,25,5,1,6,I,,1,,,,,,,
,,,,,,,,,,1,beth,2023-09-27_15h43.33.809,Motor_Task,2023.2.2,MacIntel,120.0048002,29.3157,29.8486,3,1,0.5311,,2,6,26,6,1,7,R,,3,,,,,,,
,,,,,,,,,,1,beth,2023-09-27_15h43.33.809,Motor_Task,2023.2.2,MacIntel,120.0048002,29.8492,30.3651,2,1,0.5144,,2,7,27,7,1,8,M,,2,,,,,,,
,,,,,,,,,,1,beth,2023-09-27_15h43.33.809,Motor_Task,2023.2.2,MacIntel,120.0048002,30.3656,31.0395,4,1,0.6706,,2,8,28,8,1,9,L,,4,,,,,,,
,,,,,,,,,,1,beth,2023-09-27_15h43.33.809,Motor_Task,2023.2.2,MacIntel,120.0048002,31.0401,31.5239,1,1,0.4834,,2,9,29,9,1,10,I,,1,,,,,,,
,,,,,,,,,,1,beth,2023-09-27_15h43.33.809,Motor_Task,2023.2.2,MacIntel,120.0048002,31.5244,32.1395,2,1,0.6131,,3,0,30,0,1,1,M,,2,,,,,,,
,,,,,,,,,,1,beth,2023-09-27_15h43.33.809,Motor_Task,2023.2.2,MacIntel,120.0048002,32.1401,32.6054,3,1,0.4645,,3,1,31,1,1,2,R,,3,,,,,,,
,,,,,,,,,,1,beth,2023-09-27_15h43.33.809,Motor_Task,2023.2.2,MacIntel,120.0048002,32.606,33.1474,2,1,0.5384,,3,2,32,2,1,3,M,,2,,,,,,,
,,,,,,,,,,1,beth,2023-09-27_15h43.33.809,Motor_Task,2023.2.2,MacIntel,120.0048002,33.1479,33.7228,3,1,0.5743,,3,3,33,3,1,4,R,,3,,,,,,,
,,,,,,,,,,1,beth,2023-09-27_15h43.33.809,Motor_Task,2023.2.2,MacIntel,120.0048002,33.7234,34.2824,1,1,0.5541,,3,4,34,4,1,5,I,,1,,,,,,,
,,,,,,,,,,1,beth,2023-09-27_15h43.33.809,Motor_Task,2023.2.2,MacIntel,120.0048002,34.2838,35.0059,1,1,0.7211,,3,5,35,5,1,6,I,,1,,,,,,,
,,,,,,,,,,1,beth,2023-09-27_15h43.33.809,Motor_Task,2023.2.2,MacIntel,120.0048002,35.0065,35.5816,4,0,0.573,,3,6,36,6,1,7,R,,3,,,,,,,
,,,,,,,,,,1,beth,2023-09-27_15h43.33.809,Motor_Task,2023.2.2,MacIntel,120.0048002,35.582,36.5485,2,1,0.9654,,3,7,37,7,1,8,M,,2,,,,,,,
,,,,,,,,,,1,beth,2023-09-27_15h43.33.809,Motor_Task,2023.2.2,MacIntel,120.0048002,36.549,37.1485,4,1,0.5952,,3,8,38,8,1,9,L,,4,,,,,,,
,,,,,,,,,,1,beth,2023-09-27_15h43.33.809,Motor_Task,2023.2.2,MacIntel,120.0048002,37.149,37.6651,1,1,0.5144,,3,9,39,9,1,10,I,,1,,,,,,,
,,,,,,,,,,1,beth,2023-09-27_15h43.33.809,Motor_Task,2023.2.2,MacIntel,120.0048002,37.6657,38.2401,2,1,0.5708,,4,0,40,0,1,1,M,,2,,,,,,,
,,,,,,,,,,1,beth,2023-09-27_15h43.33.809,Motor_Task,2023.2.2,MacIntel,120.0048002,38.2407,38.7741,3,1,0.5282,,4,1,41,1,1,2,R,,3,,,,,,,
,,,,,,,,,,1,beth,2023-09-27_15h43.33.809,Motor_Task,2023.2.2,MacIntel,120.0048002,38.7749,39.3077,2,1,0.5317,,4,2,42,2,1,3,M,,2,,,,,,,
,,,,,,,,,,1,beth,2023-09-27_15h43.33.809,Motor_Task,2023.2.2,MacIntel,120.0048002,39.3084,39.8978,3,1,0.5853,,4,3,43,3,1,4,R,,3,,,,,,,
,,,,,,,,,,1,beth,2023-09-27_15h43.33.809,Motor_Task,2023.2.2,MacIntel,120.0048002,39.8983,40.4233,1,1,0.5214,,4,4,44,4,1,5,I,,1,,,,,,,
,,,,,,,,,,1,beth,2023-09-27_15h43.33.809,Motor_Task,2023.2.2,MacIntel,120.0048002,40.4236,40.9231,2,0,0.4989,,4,5,45,5,1,6,I,,1,,,,,,,
,,,,,,,,,,1,beth,2023-09-27_15h43.33.809,Motor_Task,2023.2.2,MacIntel,120.0048002,40.9241,41.7306,3,1,0.8046,,4,6,46,6,1,7,R,,3,,,,,,,
,,,,,,,,,,1,beth,2023-09-27_15h43.33.809,Motor_Task,2023.2.2,MacIntel,120.0048002,41.7313,42.2556,2,1,0.5204,,4,7,47,7,1,8,M,,2,,,,,,,
,,,,,,,,,,1,beth,2023-09-27_15h43.33.809,Motor_Task,2023.2.2,MacIntel,120.0048002,42.2561,42.8812,4,1,0.6209,,4,8,48,8,1,9,L,,4,,,,,,,
,,,,,,,,,,1,beth,2023-09-27_15h43.33.809,Motor_Task,2023.2.2,MacIntel,120.0048002,42.8817,43.3898,1,1,0.5059,,4,9,49,9,1,10,I,,1,,,,,,,
,,,,,,,,,,1,beth,2023-09-27_15h43.33.809,Motor_Task,2023.2.2,MacIntel,120.0048002,43.3904,43.8826,2,1,0.4861,,5,0,50,0,1,1,M,,2,,,,,,,
,,,,,,,,,,1,beth,2023-09-27_15h43.33.809,Motor_Task,2023.2.2,MacIntel,120.0048002,43.8832,44.4815,3,1,0.5957,,5,1,51,1,1,2,R,,3,,,,,,,
,,,,,,,,,,1,beth,2023-09-27_15h43.33.809,Motor_Task,2023.2.2,MacIntel,120.0048002,44.4822,45.0062,2,1,0.5201,,5,2,52,2,1,3,M,,2,,,,,,,
,,,,,,,,,,1,beth,2023-09-27_15h43.33.809,Motor_Task,2023.2.2,MacIntel,120.0048002,45.0069,45.4653,3,1,0.4553,,5,3,53,3,1,4,R,,3,,,,,,,
,,,,,,,,,,1,beth,2023-09-27_15h43.33.809,Motor_Task,2023.2.2,MacIntel,120.0048002,45.4658,45.9562,1,1,0.4891,,5,4,54,4,1,5,I,,1,,,,,,,
,,,,,,,,,,1,beth,2023-09-27_15h43.33.809,Motor_Task,2023.2.2,MacIntel,120.0048002,45.9567,46.4559,1,1,0.4965,,5,5,55,5,1,6,I,,1,,,,,,,
,,,,,,,,,,1,beth,2023-09-27_15h43.33.809,Motor_Task,2023.2.2,MacIntel,120.0048002,46.4564,47.0982,3,1,0.6393,,5,6,56,6,1,7,R,,3,,,,,,,
,,,,,,,,,,1,beth,2023-09-27_15h43.33.809,Motor_Task,2023.2.2,MacIntel,120.0048002,47.0987,47.5158,2,1,0.412,,5,7,57,7,1,8,M,,2,,,,,,,
,,,,,,,,,,1,beth,2023-09-27_15h43.33.809,Motor_Task,2023.2.2,MacIntel,120.0048002,47.5162,48.1151,4,1,0.5959,,5,8,58,8,1,9,L,,4,,,,,,,
,,,,,,,,,,1,beth,2023-09-27_15h43.33.809,Motor_Task,2023.2.2,MacIntel,120.0048002,48.1157,48.6317,1,1,0.5114,,5,9,59,9,1,10,I,,1,,,,,,,
,,,,,,,,,,1,beth,2023-09-27_15h43.33.809,Motor_Task,2023.2.2,MacIntel,120.0048002,48.6322,49.2142,2,1,0.5791,,6,0,60,0,1,1,M,,2,,,,,,,
,,,,,,,,,,1,beth,2023-09-27_15h43.33.809,Motor_Task,2023.2.2,MacIntel,120.0048002,49.2148,49.7066,3,1,0.4899,,6,1,61,1,1,2,R,,3,,,,,,,
,,,,,,,,,,1,beth,2023-09-27_15h43.33.809,Motor_Task,2023.2.2,MacIntel,120.0048002,49.7071,50.1563,2,1,0.4426,,6,2,62,2,1,3,M,,2,,,,,,,
,,,,,,,,,,1,beth,2023-09-27_15h43.33.809,Motor_Task,2023.2.2,MacIntel,120.0048002,50.1567,50.6063,3,1,0.4468,,6,3,63,3,1,4,R,,3,,,,,,,
,,,,,,,,,,1,beth,2023-09-27_15h43.33.809,Motor_Task,2023.2.2,MacIntel,120.0048002,50.6069,51.0974,1,1,0.4877,,6,4,64,4,1,5,I,,1,,,,,,,
,,,,,,,,,,1,beth,2023-09-27_15h43.33.809,Motor_Task,2023.2.2,MacIntel,120.0048002,51.0979,51.582,1,1,0.4831,,6,5,65,5,1,6,I,,1,,,,,,,
,,,,,,,,,,1,beth,2023-09-27_15h43.33.809,Motor_Task,2023.2.2,MacIntel,120.0048002,51.5822,52.1821,3,1,0.5963,,6,6,66,6,1,7,R,,3,,,,,,,
,,,,,,,,,,1,beth,2023-09-27_15h43.33.809,Motor_Task,2023.2.2,MacIntel,120.0048002,52.1826,52.6485,2,1,0.4643,,6,7,67,7,1,8,M,,2,,,,,,,
,,,,,,,,,,1,beth,2023-09-27_15h43.33.809,Motor_Task,2023.2.2,MacIntel,120.0048002,52.6491,53.2991,4,1,0.6454,,6,8,68,8,1,9,L,,4,,,,,,,
,,,,,,,,,,1,beth,2023-09-27_15h43.33.809,Motor_Task,2023.2.2,MacIntel,120.0048002,53.2994,53.8561,1,1,0.5543,,6,9,69,9,1,10,I,,1,,,,,,,
,,,,,,,,,,1,beth,2023-09-27_15h43.33.809,Motor_Task,2023.2.2,MacIntel,120.0048002,53.8566,54.4391,2,1,0.5796,,7,0,70,0,1,1,M,,2,,,,,,,
,,,,,,,,,,1,beth,2023-09-27_15h43.33.809,Motor_Task,2023.2.2,MacIntel,120.0048002,54.4395,54.8808,3,1,0.4391,,7,1,71,1,1,2,R,,3,,,,,,,
,,,,,,,,,,1,beth,2023-09-27_15h43.33.809,Motor_Task,2023.2.2,MacIntel,120.0048002,54.8811,55.4566,2,1,0.5713,,7,2,72,2,1,3,M,,2,,,,,,,
,,,,,,,,,,1,beth,2023-09-27_15h43.33.809,Motor_Task,2023.2.2,MacIntel,120.0048002,55.4572,56.0478,3,1,0.5884,,7,3,73,3,1,4,R,,3,,,,,,,
,,,,,,,,,,1,beth,2023-09-27_15h43.33.809,Motor_Task,2023.2.2,MacIntel,120.0048002,56.0483,56.5327,1,1,0.4809,,7,4,74,4,1,5,I,,1,,,,,,,
,,,,,,,,,,1,beth,2023-09-27_15h43.33.809,Motor_Task,2023.2.2,MacIntel,120.0048002,56.5332,56.9984,1,1,0.4644,,7,5,75,5,1,6,I,,1,,,,,,,
,,,,,,,,,,1,beth,2023-09-27_15h43.33.809,Motor_Task,2023.2.2,MacIntel,120.0048002,56.9989,57.5314,3,1,0.5278,,7,6,76,6,1,7,R,,3,,,,,,,
,,,,,,,,,,1,beth,2023-09-27_15h43.33.809,Motor_Task,2023.2.2,MacIntel,120.0048002,57.532,58.0065,2,1,0.4708,,7,7,77,7,1,8,M,,2,,,,,,,
,,,,,,,,,,1,beth,2023-09-27_15h43.33.809,Motor_Task,2023.2.2,MacIntel,120.0048002,58.0071,58.6553,4,1,0.6465,,7,8,78,8,1,9,L,,4,,,,,,,
,,,,,,,,,,1,beth,2023-09-27_15h43.33.809,Motor_Task,2023.2.2,MacIntel,120.0048002,58.6559,59.1912,1,1,0.5307,,7,9,79,9,1,10,I,,1,,,,,,,
,,,,,,,,,,1,beth,2023-09-27_15h43.33.809,Motor_Task,2023.2.2,MacIntel,120.0048002,59.1917,59.6484,2,1,0.4555,,8,0,80,0,1,1,M,,2,,,,,,,
,,,,,,,,,,1,beth,2023-09-27_15h43.33.809,Motor_Task,2023.2.2,MacIntel,120.0048002,59.649,60.1062,3,1,0.4548,,8,1,81,1,1,2,R,,3,,,,,,,
,,,,,,,,,,1,beth,2023-09-27_15h43.33.809,Motor_Task,2023.2.2,MacIntel,120.0048002,60.1071,60.5233,2,1,0.4123,,8,2,82,2,1,3,M,,2,,,,,,,
,,,,,,,,,,1,beth,2023-09-27_15h43.33.809,Motor_Task,2023.2.2,MacIntel,120.0048002,60.5239,61.065,3,1,0.537,,8,3,83,3,1,4,R,,3,,,,,,,
,,,,,,,,,,1,beth,2023-09-27_15h43.33.809,Motor_Task,2023.2.2,MacIntel,120.0048002,61.0657,61.5473,1,1,0.4798,,8,4,84,4,1,5,I,,1,,,,,,,
,,,,,,,,,,1,beth,2023-09-27_15h43.33.809,Motor_Task,2023.2.2,MacIntel,120.0048002,61.5478,62.0894,1,1,0.537,,8,5,85,5,1,6,I,,1,,,,,,,
,,,,,,,,,,1,beth,2023-09-27_15h43.33.809,Motor_Task,2023.2.2,MacIntel,120.0048002,62.0897,62.6987,3,1,0.6055,,8,6,86,6,1,7,R,,3,,,,,,,
,,,,,,,,,,1,beth,2023-09-27_15h43.33.809,Motor_Task,2023.2.2,MacIntel,120.0048002,62.6992,63.1564,2,1,0.4554,,8,7,87,7,1,8,M,,2,,,,,,,
,,,,,,,,,,1,beth,2023-09-27_15h43.33.809,Motor_Task,2023.2.2,MacIntel,120.0048002,63.1569,63.6238,4,1,0.4639,,8,8,88,8,1,9,L,,4,,,,,,,
,,,,,,,,,,1,beth,2023-09-27_15h43.33.809,Motor_Task,2023.2.2,MacIntel,120.0048002,63.6242,64.2236,1,1,0.5976,,8,9,89,9,1,10,I,,1,,,,,,,
,,,,,,,,,,1,beth,2023-09-27_15h43.33.809,Motor_Task,2023.2.2,MacIntel,120.0048002,64.2241,64.6902,2,1,0.4607,,9,0,90,0,1,1,M,,2,,,,,,,
,,,,,,,,,,1,beth,2023-09-27_15h43.33.809,Motor_Task,2023.2.2,MacIntel,120.0048002,64.6906,65.2738,3,1,0.581,,9,1,91,1,1,2,R,,3,,,,,,,
,,,,,,,,,,1,beth,2023-09-27_15h43.33.809,Motor_Task,2023.2.2,MacIntel,120.0048002,65.2742,65.7826,2,1,0.5041,,9,2,92,2,1,3,M,,2,,,,,,,
,,,,,,,,,,1,beth,2023-09-27_15h43.33.809,Motor_Task,2023.2.2,MacIntel,120.0048002,65.7831,66.5985,3,1,0.8105,,9,3,93,3,1,4,R,,3,,,,,,,
,,,,,,,,,,1,beth,2023-09-27_15h43.33.809,Motor_Task,2023.2.2,MacIntel,120.0048002,66.5991,67.2141,1,1,0.6121,,9,4,94,4,1,5,I,,1,,,,,,,
,,,,,,,,,,1,beth,2023-09-27_15h43.33.809,Motor_Task,2023.2.2,MacIntel,120.0048002,67.2147,67.7156,1,1,0.4965,,9,5,95,5,1,6,I,,1,,,,,,,
,,,,,,,,,,1,beth,2023-09-27_15h43.33.809,Motor_Task,2023.2.2,MacIntel,120.0048002,67.7162,68.2489,3,1,0.5322,,9,6,96,6,1,7,R,,3,,,,,,,
,,,,,,,,,,1,beth,2023-09-27_15h43.33.809,Motor_Task,2023.2.2,MacIntel,120.0048002,68.2492,68.6894,2,1,0.4377,,9,7,97,7,1,8,M,,2,,,,,,,
,,,,,,,,,,1,beth,2023-09-27_15h43.33.809,Motor_Task,2023.2.2,MacIntel,120.0048002,68.6899,69.3892,4,1,0.6975,,9,8,98,8,1,9,L,,4,,,,,,,
,,,,,,,,,,1,beth,2023-09-27_15h43.33.809,Motor_Task,2023.2.2,MacIntel,120.0048002,69.3897,69.8398,1,1,0.4458,,9,9,99,9,1,10,I,,1,,,,,,,
,,,,,,,,,,1,beth,2023-09-27_15h43.33.809,Motor_Task,2023.2.2,MacIntel,120.0048002,69.8406,70.3899,2,1,0.547,,10,0,100,0,1,1,M,,2,,,,,,,
,,,,,,,,,,1,beth,2023-09-27_15h43.33.809,Motor_Task,2023.2.2,MacIntel,120.0048002,70.3905,70.8646,3,1,0.471,,10,1,101,1,1,2,R,,3,,,,,,,
,,,,,,,,,,1,beth,2023-09-27_15h43.33.809,Motor_Task,2023.2.2,MacIntel,120.0048002,70.8651,71.3401,2,1,0.4745,,10,2,102,2,1,3,M,,2,,,,,,,
,,,,,,,,,,1,beth,2023-09-27_15h43.33.809,Motor_Task,2023.2.2,MacIntel,120.0048002,71.3406,71.8316,3,1,0.4868,,10,3,103,3,1,4,R,,3,,,,,,,
,,,,,,,,,,1,beth,2023-09-27_15h43.33.809,Motor_Task,2023.2.2,MacIntel,120.0048002,71.8321,72.3318,1,1,0.4958,,10,4,104,4,1,5,I,,1,,,,,,,
,,,,,,,,,,1,beth,2023-09-27_15h43.33.809,Motor_Task,2023.2.2,MacIntel,120.0048002,72.3322,72.8056,1,1,0.4722,,10,5,105,5,1,6,I,,1,,,,,,,
,,,,,,,,,,1,beth,2023-09-27_15h43.33.809,Motor_Task,2023.2.2,MacIntel,120.0048002,72.8058,73.3239,3,1,0.5159,,10,6,106,6,1,7,R,,3,,,,,,,
,,,,,,,,,,1,beth,2023-09-27_15h43.33.809,Motor_Task,2023.2.2,MacIntel,120.0048002,73.3245,73.7301,2,1,0.4012,,10,7,107,7,1,8,M,,2,,,,,,,
,,,,,,,,,,1,beth,2023-09-27_15h43.33.809,Motor_Task,2023.2.2,MacIntel,120.0048002,73.7306,74.3139,4,1,0.582,,10,8,108,8,1,9,L,,4,,,,,,,
,,,,,,,,,,1,beth,2023-09-27_15h43.33.809,Motor_Task,2023.2.2,MacIntel,120.0048002,74.3144,74.7572,1,1,0.4403,,10,9,109,9,1,10,I,,1,,,,,,,
,,,,,,,,,,1,beth,2023-09-27_15h43.33.809,Motor_Task,2023.2.2,MacIntel,120.0048002,74.7575,75.1983,2,1,0.439,,11,0,110,0,1,1,M,,2,,,,,,,
,,,,,,,,,,1,beth,2023-09-27_15h43.33.809,Motor_Task,2023.2.2,MacIntel,120.0048002,75.1988,75.615,3,1,0.4139,,11,1,111,1,1,2,R,,3,,,,,,,
,,,,,,,,,,1,beth,2023-09-27_15h43.33.809,Motor_Task,2023.2.2,MacIntel,120.0048002,75.6155,76.0652,2,1,0.4464,,11,2,112,2,1,3,M,,2,,,,,,,
,,,,,,,,,,1,beth,2023-09-27_15h43.33.809,Motor_Task,2023.2.2,MacIntel,120.0048002,76.0657,76.6471,3,1,0.5793,,11,3,113,3,1,4,R,,3,,,,,,,
,,,,,,,,,,1,beth,2023-09-27_15h43.33.809,Motor_Task,2023.2.2,MacIntel,120.0048002,76.6479,77.0813,1,1,0.4293,,11,4,114,4,1,5,I,,1,,,,,,,
,,,,,,,,,,1,beth,2023-09-27_15h43.33.809,Motor_Task,2023.2.2,MacIntel,120.0048002,77.0818,77.4871,1,1,0.403,,11,5,115,5,1,6,I,,1,,,,,,,
,,,,,,,,,,1,beth,2023-09-27_15h43.33.809,Motor_Task,2023.2.2,MacIntel,120.0048002,77.488,78.0898,3,1,0.5971,,11,6,116,6,1,7,R,,3,,,,,,,
,,,,,,,,,,1,beth,2023-09-27_15h43.33.809,Motor_Task,2023.2.2,MacIntel,120.0048002,78.0903,78.4652,2,1,0.3696,,11,7,117,7,1,8,M,,2,,,,,,,
,,,,,,,,,,1,beth,2023-09-27_15h43.33.809,Motor_Task,2023.2.2,MacIntel,120.0048002,78.4658,78.8897,3,0,0.4195,,11,8,118,8,1,9,L,,4,,,,,,,
,,,,,,,,,,1,beth,2023-09-27_15h43.33.809,Motor_Task,2023.2.2,MacIntel,120.0048002,78.8904,80.048,1,1,1.1537,,11,9,119,9,1,10,I,,1,,,,,,,
,,,,,,,,,,1,beth,2023-09-27_15h43.33.809,Motor_Task,2023.2.2,MacIntel,120.0048002,80.0486,80.6225,2,1,0.5713,,12,0,120,0,1,1,M,,2,,,,,,,
,,,,,,,,,,1,beth,2023-09-27_15h43.33.809,Motor_Task,2023.2.2,MacIntel,120.0048002,80.623,81.231,3,1,0.6051,,12,1,121,1,1,2,R,,3,,,,,,,
,,,,,,,,,,1,beth,2023-09-27_15h43.33.809,Motor_Task,2023.2.2,MacIntel,120.0048002,81.2315,81.7823,2,1,0.5461,,12,2,122,2,1,3,M,,2,,,,,,,
,,,,,,,,,,1,beth,2023-09-27_15h43.33.809,Motor_Task,2023.2.2,MacIntel,120.0048002,81.7827,82.4643,3,1,0.6791,,12,3,123,3,1,4,R,,3,,,,,,,
,,,,,,,,,,1,beth,2023-09-27_15h43.33.809,Motor_Task,2023.2.2,MacIntel,120.0048002,82.4653,82.9318,1,1,0.4631,,12,4,124,4,1,5,I,,1,,,,,,,
,,,,,,,,,,1,beth,2023-09-27_15h43.33.809,Motor_Task,2023.2.2,MacIntel,120.0048002,82.9323,83.2972,1,1,0.362,,12,5,125,5,1,6,I,,1,,,,,,,
,,,,,,,,,,1,beth,2023-09-27_15h43.33.809,Motor_Task,2023.2.2,MacIntel,120.0048002,83.2977,83.9236,3,1,0.6232,,12,6,126,6,1,7,R,,3,,,,,,,
,,,,,,,,,,1,beth,2023-09-27_15h43.33.809,Motor_Task,2023.2.2,MacIntel,120.0048002,83.9241,84.3648,2,1,0.4385,,12,7,127,7,1,8,M,,2,,,,,,,
,,,,,,,,,,1,beth,2023-09-27_15h43.33.809,Motor_Task,2023.2.2,MacIntel,120.0048002,84.3653,84.9058,4,1,0.539,,12,8,128,8,1,9,L,,4,,,,,,,
,,,,,,,,,,1,beth,2023-09-27_15h43.33.809,Motor_Task,2023.2.2,MacIntel,120.0048002,84.9061,85.3731,1,1,0.4647,,12,9,129,9,1,10,I,,1,,,,,,,
,,,,,,,,,,1,beth,2023-09-27_15h43.33.809,Motor_Task,2023.2.2,MacIntel,120.0048002,85.3736,86.0061,2,1,0.6304,,13,0,130,0,1,1,M,,2,,,,,,,
,,,,,,,,,,1,beth,2023-09-27_15h43.33.809,Motor_Task,2023.2.2,MacIntel,120.0048002,86.0065,86.4481,3,1,0.4394,,13,1,131,1,1,2,R,,3,,,,,,,
,,,,,,,,,,1,beth,2023-09-27_15h43.33.809,Motor_Task,2023.2.2,MacIntel,120.0048002,86.4486,86.9495,2,1,0.4934,,13,2,132,2,1,3,M,,2,,,,,,,
,,,,,,,,,,1,beth,2023-09-27_15h43.33.809,Motor_Task,2023.2.2,MacIntel,120.0048002,86.9501,87.5234,3,1,0.5683,,13,3,133,3,1,4,R,,3,,,,,,,
,,,,,,,,,,1,beth,2023-09-27_15h43.33.809,Motor_Task,2023.2.2,MacIntel,120.0048002,87.5241,88.1467,1,1,0.6216,,13,4,134,4,1,5,I,,1,,,,,,,
,,,,,,,,,,1,beth,2023-09-27_15h43.33.809,Motor_Task,2023.2.2,MacIntel,120.0048002,88.1472,88.5731,1,1,0.4227,,13,5,135,5,1,6,I,,1,,,,,,,
,,,,,,,,,,1,beth,2023-09-27_15h43.33.809,Motor_Task,2023.2.2,MacIntel,120.0048002,88.5736,89.2079,3,1,0.6333,,13,6,136,6,1,7,R,,3,,,,,,,
,,,,,,,,,,1,beth,2023-09-27_15h43.33.809,Motor_Task,2023.2.2,MacIntel,120.0048002,89.2084,89.7064,2,1,0.4945,,13,7,137,7,1,8,M,,2,,,,,,,
,,,,,,,,,,1,beth,2023-09-27_15h43.33.809,Motor_Task,2023.2.2,MacIntel,120.0048002,89.707,90.2905,4,1,0.5802,,13,8,138,8,1,9,L,,4,,,,,,,
,,,,,,,,,,1,beth,2023-09-27_15h43.33.809,Motor_Task,2023.2.2,MacIntel,120.0048002,90.291,90.8141,1,1,0.5208,,13,9,139,9,1,10,I,,1,,,,,,,
,,,,,,,,,,1,beth,2023-09-27_15h43.33.809,Motor_Task,2023.2.2,MacIntel,120.0048002,90.8146,91.3646,2,1,0.5468,,14,0,140,0,1,1,M,,2,,,,,,,
,,,,,,,,,,1,beth,2023-09-27_15h43.33.809,Motor_Task,2023.2.2,MacIntel,120.0048002,91.366,91.7486,3,1,0.377,,14,1,141,1,1,2,R,,3,,,,,,,
,,,,,,,,,,1,beth,2023-09-27_15h43.33.809,Motor_Task,2023.2.2,MacIntel,120.0048002,91.7492,92.2233,2,1,0.4735,,14,2,142,2,1,3,M,,2,,,,,,,
,,,,,,,,,,1,beth,2023-09-27_15h43.33.809,Motor_Task,2023.2.2,MacIntel,120.0048002,92.2238,92.7805,3,1,0.5544,,14,3,143,3,1,4,R,,3,,,,,,,
,,,,,,,,,,1,beth,2023-09-27_15h43.33.809,Motor_Task,2023.2.2,MacIntel,120.0048002,92.7812,93.356,1,1,0.5731,,14,4,144,4,1,5,I,,1,,,,,,,
,,,,,,,,,,1,beth,2023-09-27_15h43.33.809,Motor_Task,2023.2.2,MacIntel,120.0048002,93.3566,93.7908,1,1,0.4279,,14,5,145,5,1,6,I,,1,,,,,,,
,,,,,,,,,,1,beth,2023-09-27_15h43.33.809,Motor_Task,2023.2.2,MacIntel,120.0048002,93.7913,94.3395,3,1,0.5467,,14,6,146,6,1,7,R,,3,,,,,,,
,,,,,,,,,,1,beth,2023-09-27_15h43.33.809,Motor_Task,2023.2.2,MacIntel,120.0048002,94.3398,94.7062,2,1,0.3657,,14,7,147,7,1,8,M,,2,,,,,,,
,,,,,,,,,,1,beth,2023-09-27_15h43.33.809,Motor_Task,2023.2.2,MacIntel,120.0048002,94.7068,95.3237,4,1,0.6152,,14,8,148,8,1,9,L,,4,,,,,,,
,,,,,,,,,,1,beth,2023-09-27_15h43.33.809,Motor_Task,2023.2.2,MacIntel,120.0048002,95.3243,95.7407,1,1,0.4149,,14,9,149,9,1,10,I,,1,,,,,,,
,,,,,,,,,,1,beth,2023-09-27_15h43.33.809,Motor_Task,2023.2.2,MacIntel,120.0048002,95.7412,96.2058,2,1,0.4636,,15,0,150,0,1,1,M,,2,,,,,,,
,,,,,,,,,,1,beth,2023-09-27_15h43.33.809,Motor_Task,2023.2.2,MacIntel,120.0048002,96.2063,96.6314,3,1,0.4241,,15,1,151,1,1,2,R,,3,,,,,,,
,,,,,,,,,,1,beth,2023-09-27_15h43.33.809,Motor_Task,2023.2.2,MacIntel,120.0048002,96.6319,97.0574,2,1,0.4229,,15,2,152,2,1,3,M,,2,,,,,,,
,,,,,,,,,,1,beth,2023-09-27_15h43.33.809,Motor_Task,2023.2.2,MacIntel,120.0048002,97.058,97.5484,3,1,0.4865,,15,3,153,3,1,4,R,,3,,,,,,,
,,,,,,,,,,1,beth,2023-09-27_15h43.33.809,Motor_Task,2023.2.2,MacIntel,120.0048002,97.5489,98.0815,1,1,0.5302,,15,4,154,4,1,5,I,,1,,,,,,,
,,,,,,,,,,1,beth,2023-09-27_15h43.33.809,Motor_Task,2023.2.2,MacIntel,120.0048002,98.082,98.5326,1,1,0.4448,,15,5,155,5,1,6,I,,1,,,,,,,
,,,,,,,,,,1,beth,2023-09-27_15h43.33.809,Motor_Task,2023.2.2,MacIntel,120.0048002,98.5331,99.0571,3,1,0.5202,,15,6,156,6,1,7,R,,3,,,,,,,
,,,,,,,,,,1,beth,2023-09-27_15h43.33.809,Motor_Task,2023.2.2,MacIntel,120.0048002,99.0575,99.4487,2,1,0.3881,,15,7,157,7,1,8,M,,2,,,,,,,
,,,,,,,,,,1,beth,2023-09-27_15h43.33.809,Motor_Task,2023.2.2,MacIntel,120.0048002,99.4491,100.1063,4,1,0.6541,,15,8,158,8,1,9,L,,4,,,,,,,
,,,,,,,,,,1,beth,2023-09-27_15h43.33.809,Motor_Task,2023.2.2,MacIntel,120.0048002,100.1068,100.7487,1,1,0.6401,,15,9,159,9,1,10,I,,1,,,,,,,
,,,,,,,,,,1,beth,2023-09-27_15h43.33.809,Motor_Task,2023.2.2,MacIntel,120.0048002,100.7492,101.2064,2,1,0.4532,,16,0,160,0,1,1,M,,2,,,,,,,
,,,,,,,,,,1,beth,2023-09-27_15h43.33.809,Motor_Task,2023.2.2,MacIntel,120.0048002,101.2068,101.6559,3,1,0.4465,,16,1,161,1,1,2,R,,3,,,,,,,
,,,,,,,,,,1,beth,2023-09-27_15h43.33.809,Motor_Task,2023.2.2,MacIntel,120.0048002,101.6563,102.0883,2,1,0.4293,,16,2,162,2,1,3,M,,2,,,,,,,
,,,,,,,,,,1,beth,2023-09-27_15h43.33.809,Motor_Task,2023.2.2,MacIntel,120.0048002,102.0887,102.5487,3,1,0.4578,,16,3,163,3,1,4,R,,3,,,,,,,
,,,,,,,,,,1,beth,2023-09-27_15h43.33.809,Motor_Task,2023.2.2,MacIntel,120.0048002,102.5492,103.1657,1,1,0.6158,,16,4,164,4,1,5,I,,1,,,,,,,
,,,,,,,,,,1,beth,2023-09-27_15h43.33.809,Motor_Task,2023.2.2,MacIntel,120.0048002,103.1663,103.5816,1,1,0.4104,,16,5,165,5,1,6,I,,1,,,,,,,
,,,,,,,,,,1,beth,2023-09-27_15h43.33.809,Motor_Task,2023.2.2,MacIntel,120.0048002,103.5821,104.2233,3,1,0.6375,,16,6,166,6,1,7,R,,3,,,,,,,
,,,,,,,,,,1,beth,2023-09-27_15h43.33.809,Motor_Task,2023.2.2,MacIntel,120.0048002,104.2239,104.6308,2,1,0.4044,,16,7,167,7,1,8,M,,2,,,,,,,
,,,,,,,,,,1,beth,2023-09-27_15h43.33.809,Motor_Task,2023.2.2,MacIntel,120.0048002,104.6313,105.2232,4,1,0.5899,,16,8,168,8,1,9,L,,4,,,,,,,
,,,,,,,,,,1,beth,2023-09-27_15h43.33.809,Motor_Task,2023.2.2,MacIntel,120.0048002,105.2237,105.8064,1,1,0.5815,,16,9,169,9,1,10,I,,1,,,,,,,
,,,,,,,,,,1,beth,2023-09-27_15h43.33.809,Motor_Task,2023.2.2,MacIntel,120.0048002,105.8069,106.3738,2,1,0.5646,,17,0,170,0,1,1,M,,2,,,,,,,
,,,,,,,,,,1,beth,2023-09-27_15h43.33.809,Motor_Task,2023.2.2,MacIntel,120.0048002,106.3743,106.8141,3,1,0.4369,,17,1,171,1,1,2,R,,3,,,,,,,
,,,,,,,,,,1,beth,2023-09-27_15h43.33.809,Motor_Task,2023.2.2,MacIntel,120.0048002,106.8145,107.1149,2,1,0.2973,,17,2,172,2,1,3,M,,2,,,,,,,
,,,,,,,,,,1,beth,2023-09-27_15h43.33.809,Motor_Task,2023.2.2,MacIntel,120.0048002,107.1154,107.7147,3,1,0.5972,,17,3,173,3,1,4,R,,3,,,,,,,
,,,,,,,,,,1,beth,2023-09-27_15h43.33.809,Motor_Task,2023.2.2,MacIntel,120.0048002,107.7152,108.0906,1,1,0.3712,,17,4,174,4,1,5,I,,1,,,,,,,
,,,,,,,,,,1,beth,2023-09-27_15h43.33.809,Motor_Task,2023.2.2,MacIntel,120.0048002,108.0912,108.3983,1,1,0.3051,,17,5,175,5,1,6,I,,1,,,,,,,
,,,,,,,,,,1,beth,2023-09-27_15h43.33.809,Motor_Task,2023.2.2,MacIntel,120.0048002,108.3991,108.9303,4,0,0.5268,,17,6,176,6,1,7,R,,3,,,,,,,
,,,,,,,,,,1,beth,2023-09-27_15h43.33.809,Motor_Task,2023.2.2,MacIntel,120.0048002,108.9309,109.7074,2,1,0.7712,,17,7,177,7,1,8,M,,2,,,,,,,
,,,,,,,,,,1,beth,2023-09-27_15h43.33.809,Motor_Task,2023.2.2,MacIntel,120.0048002,109.7079,110.3228,4,1,0.6122,,17,8,178,8,1,9,L,,4,,,,,,,
,,,,,,,,,,1,beth,2023-09-27_15h43.33.809,Motor_Task,2023.2.2,MacIntel,120.0048002,110.3233,110.7383,1,1,0.4128,,17,9,179,9,1,10,I,,1,,,,,,,
,,,,,,,,,,1,beth,2023-09-27_15h43.33.809,Motor_Task,2023.2.2,MacIntel,120.0048002,110.7388,111.3981,2,1,0.6556,,18,0,180,0,1,1,M,,2,,,,,,,
,,,,,,,,,,1,beth,2023-09-27_15h43.33.809,Motor_Task,2023.2.2,MacIntel,120.0048002,111.3988,111.7902,3,1,0.3889,,18,1,181,1,1,2,R,,3,,,,,,,
,,,,,,,,,,1,beth,2023-09-27_15h43.33.809,Motor_Task,2023.2.2,MacIntel,120.0048002,111.7907,112.3987,2,1,0.6022,,18,2,182,2,1,3,M,,2,,,,,,,
,,,,,,,,,,1,beth,2023-09-27_15h43.33.809,Motor_Task,2023.2.2,MacIntel,120.0048002,112.3991,112.9475,3,1,0.5461,,18,3,183,3,1,4,R,,3,,,,,,,
,,,,,,,,,,1,beth,2023-09-27_15h43.33.809,Motor_Task,2023.2.2,MacIntel,120.0048002,112.9483,113.3485,1,1,0.3989,,18,4,184,4,1,5,I,,1,,,,,,,
,,,,,,,,,,1,beth,2023-09-27_15h43.33.809,Motor_Task,2023.2.2,MacIntel,120.0048002,113.3496,113.7228,1,1,0.3682,,18,5,185,5,1,6,I,,1,,,,,,,
,,,,,,,,,,1,beth,2023-09-27_15h43.33.809,Motor_Task,2023.2.2,MacIntel,120.0048002,113.7232,114.2813,4,0,0.5572,,18,6,186,6,1,7,R,,3,,,,,,,
,,,,,,,,,,1,beth,2023-09-27_15h43.33.809,Motor_Task,2023.2.2,MacIntel,120.0048002,114.2816,115.3649,2,1,1.0804,,18,7,187,7,1,8,M,,2,,,,,,,
,,,,,,,,,,1,beth,2023-09-27_15h43.33.809,Motor_Task,2023.2.2,MacIntel,120.0048002,115.3655,115.9905,4,1,0.6225,,18,8,188,8,1,9,L,,4,,,,,,,
,,,,,,,,,,1,beth,2023-09-27_15h43.33.809,Motor_Task,2023.2.2,MacIntel,120.0048002,115.9909,116.4397,1,1,0.4449,,18,9,189,9,1,10,I,,1,,,,,,,
,,,,,,,,,,1,beth,2023-09-27_15h43.33.809,Motor_Task,2023.2.2,MacIntel,120.0048002,116.4402,116.9565,2,1,0.5128,,19,0,190,0,1,1,M,,2,,,,,,,
,,,,,,,,,,1,beth,2023-09-27_15h43.33.809,Motor_Task,2023.2.2,MacIntel,120.0048002,116.9571,117.4147,3,1,0.4571,,19,1,191,1,1,2,R,,3,,,,,,,
,,,,,,,,,,1,beth,2023-09-27_15h43.33.809,Motor_Task,2023.2.2,MacIntel,120.0048002,117.4152,117.856,2,1,0.4351,,19,2,192,2,1,3,M,,2,,,,,,,
,,,,,,,,,,1,beth,2023-09-27_15h43.33.809,Motor_Task,2023.2.2,MacIntel,120.0048002,117.8565,118.2983,3,1,0.438,,19,3,193,3,1,4,R,,3,,,,,,,
,,,,,,,,,,1,beth,2023-09-27_15h43.33.809,Motor_Task,2023.2.2,MacIntel,120.0048002,118.2988,118.7983,1,1,0.498,,19,4,194,4,1,5,I,,1,,,,,,,
,,,,,,,,,,1,beth,2023-09-27_15h43.33.809,Motor_Task,2023.2.2,MacIntel,120.0048002,118.7989,119.0978,1,1,0.2982,,19,5,195,5,1,6,I,,1,,,,,,,
,,,,,,,,,,1,beth,2023-09-27_15h43.33.809,Motor_Task,2023.2.2,MacIntel,120.0048002,119.0983,119.6307,3,1,0.532,,19,6,196,6,1,7,R,,3,,,,,,,
,,,,,,,,,,1,beth,2023-09-27_15h43.33.809,Motor_Task,2023.2.2,MacIntel,120.0048002,119.631,120.056,2,1,0.4228,,19,7,197,7,1,8,M,,2,,,,,,,
,,,,,,,,,,1,beth,2023-09-27_15h43.33.809,Motor_Task,2023.2.2,MacIntel,120.0048002,120.0565,120.5728,4,1,0.5148,,19,8,198,8,1,9,L,,4,,,,,,,
,,,,,,,,,,1,beth,2023-09-27_15h43.33.809,Motor_Task,2023.2.2,MacIntel,120.0048002,120.5734,121.0646,1,1,0.4891,,19,9,199,9,1,10,I,,1,,,,,,,
,,,,,,,,,,1,beth,2023-09-27_15h43.33.809,Motor_Task,2023.2.2,MacIntel,120.0048002,121.0755,121.8144,3,1,0.7362,,,,,,,4,R,,3,0,0,0,3,1,,
,,,,,,,,,,1,beth,2023-09-27_15h43.33.809,Motor_Task,2023.2.2,MacIntel,120.0048002,121.8149,122.182,2,0,0.3626,,,,,,,10,I,,1,0,1,1,9,1,,
,,,,,,,,,,1,beth,2023-09-27_15h43.33.809,Motor_Task,2023.2.2,MacIntel,120.0048002,122.1827,122.9136,3,1,0.7291,,,,,,,7,R,,3,0,2,2,6,1,,
,,,,,,,,,,1,beth,2023-09-27_15h43.33.809,Motor_Task,2023.2.2,MacIntel,120.0048002,122.914,123.4323,1,1,0.512,,,,,,,6,I,,1,0,3,3,5,1,,
,,,,,,,,,,1,beth,2023-09-27_15h43.33.809,Motor_Task,2023.2.2,MacIntel,120.0048002,123.4334,124.2061,2,1,0.7687,,,,,,,3,M,,2,0,4,4,2,1,,
,,,,,,,,,,1,beth,2023-09-27_15h43.33.809,Motor_Task,2023.2.2,MacIntel,120.0048002,124.2066,124.7403,2,1,0.5309,,,,,,,1,M,,2,0,5,5,0,1,,
,,,,,,,,,,1,beth,2023-09-27_15h43.33.809,Motor_Task,2023.2.2,MacIntel,120.0048002,124.7408,125.4068,1,1,0.6621,,,,,,,5,I,,1,0,6,6,4,1,,
,,,,,,,,,,1,beth,2023-09-27_15h43.33.809,Motor_Task,2023.2.2,MacIntel,120.0048002,125.4073,126.0396,4,1,0.6283,,,,,,,9,L,,4,0,7,7,8,1,,
,,,,,,,,,,1,beth,2023-09-27_15h43.33.809,Motor_Task,2023.2.2,MacIntel,120.0048002,126.0403,126.6068,2,1,0.5624,,,,,,,8,M,,2,0,8,8,7,1,,
,,,,,,,,,,1,beth,2023-09-27_15h43.33.809,Motor_Task,2023.2.2,MacIntel,120.0048002,126.6073,127.0328,3,1,0.4248,,,,,,,2,R,,3,0,9,9,1,1,,
,,,,,,,,,,1,beth,2023-09-27_15h43.33.809,Motor_Task,2023.2.2,MacIntel,120.0048002,127.0333,127.5976,1,1,0.562,,,,,,,5,I,,1,1,0,10,4,1,,
,,,,,,,,,,1,beth,2023-09-27_15h43.33.809,Motor_Task,2023.2.2,MacIntel,120.0048002,127.5981,128.1228,1,1,0.522,,,,,,,10,I,,1,1,1,11,9,1,,
,,,,,,,,,,1,beth,2023-09-27_15h43.33.809,Motor_Task,2023.2.2,MacIntel,120.0048002,128.1234,128.8813,1,1,0.7576,,,,,,,6,I,,1,1,2,12,5,1,,
,,,,,,,,,,1,beth,2023-09-27_15h43.33.809,Motor_Task,2023.2.2,MacIntel,120.0048002,128.8819,129.4816,3,1,0.5964,,,,,,,4,R,,3,1,3,13,3,1,,
,,,,,,,,,,1,beth,2023-09-27_15h43.33.809,Motor_Task,2023.2.2,MacIntel,120.0048002,129.4838,130.1081,4,1,0.6235,,,,,,,9,L,,4,1,4,14,8,1,,
,,,,,,,,,,1,beth,2023-09-27_15h43.33.809,Motor_Task,2023.2.2,MacIntel,120.0048002,130.1087,130.8471,2,1,0.7377,,,,,,,3,M,,2,1,5,15,2,1,,
,,,,,,,,,,1,beth,2023-09-27_15h43.33.809,Motor_Task,2023.2.2,MacIntel,120.0048002,130.8478,131.2818,3,1,0.4293,,,,,,,2,R,,3,1,6,16,1,1,,
,,,,,,,,,,1,beth,2023-09-27_15h43.33.809,Motor_Task,2023.2.2,MacIntel,120.0048002,131.2823,132.2059,2,1,0.923,,,,,,,1,M,,2,1,7,17,0,1,,
,,,,,,,,,,1,beth,2023-09-27_15h43.33.809,Motor_Task,2023.2.2,MacIntel,120.0048002,132.2064,132.7904,2,1,0.5787,,,,,,,8,M,,2,1,8,18,7,1,,
,,,,,,,,,,1,beth,2023-09-27_15h43.33.809,Motor_Task,2023.2.2,MacIntel,120.0048002,132.7915,133.2902,3,1,0.4919,,,,,,,7,R,,3,1,9,19,6,1,,
,,,,,,,,,,1,beth,2023-09-27_15h43.33.809,Motor_Task,2023.2.2,MacIntel,120.0048002,133.2907,134.0146,1,1,0.7193,,,,,,,10,I,,1,2,0,20,9,1,,
,,,,,,,,,,1,beth,2023-09-27_15h43.33.809,Motor_Task,2023.2.2,MacIntel,120.0048002,134.0152,134.4645,1,1,0.4476,,,,,,,5,I,,1,2,1,21,4,1,,
,,,,,,,,,,1,beth,2023-09-27_15h43.33.809,Motor_Task,2023.2.2,MacIntel,120.0048002,134.465,135.1486,3,1,0.6803,,,,,,,7,R,,3,2,2,22,6,1,,
,,,,,,,,,,1,beth,2023-09-27_15h43.33.809,Motor_Task,2023.2.2,MacIntel,120.0048002,135.1491,135.9645,4,1,0.8117,,,,,,,9,L,,4,2,3,23,8,1,,
,,,,,,,,,,1,beth,2023-09-27_15h43.33.809,Motor_Task,2023.2.2,MacIntel,120.0048002,135.9649,136.5729,4,0,0.6049,,,,,,,4,R,,3,2,4,24,3,1,,
,,,,,,,,,,1,beth,2023-09-27_15h43.33.809,Motor_Task,2023.2.2,MacIntel,120.0048002,136.5735,137.2318,2,1,0.6545,,,,,,,1,M,,2,2,5,25,0,1,,
,,,,,,,,,,1,beth,2023-09-27_15h43.33.809,Motor_Task,2023.2.2,MacIntel,120.0048002,137.2323,137.8388,3,1,0.6044,,,,,,,2,R,,3,2,6,26,1,1,,
,,,,,,,,,,1,beth,2023-09-27_15h43.33.809,Motor_Task,2023.2.2,MacIntel,120.0048002,137.8394,138.7556,2,1,0.9146,,,,,,,3,M,,2,2,7,27,2,1,,
,,,,,,,,,,1,beth,2023-09-27_15h43.33.809,Motor_Task,2023.2.2,MacIntel,120.0048002,138.7561,139.3485,1,1,0.5919,,,,,,,6,I,,1,2,8,28,5,1,,
,,,,,,,,,,1,beth,2023-09-27_15h43.33.809,Motor_Task,2023.2.2,MacIntel,120.0048002,139.3489,139.8145,2,1,0.4641,,,,,,,8,M,,2,2,9,29,7,1,,
,,,,,,,,,,1,beth,2023-09-27_15h43.33.809,Motor_Task,2023.2.2,MacIntel,120.0048002,139.8151,140.6308,2,1,0.8116,,,,,,,3,M,,2,3,0,30,2,1,,
,,,,,,,,,,1,beth,2023-09-27_15h43.33.809,Motor_Task,2023.2.2,MacIntel,120.0048002,140.6313,141.2224,4,1,0.59,,,,,,,9,L,,4,3,1,31,8,1,,
,,,,,,,,,,1,beth,2023-09-27_15h43.33.809,Motor_Task,2023.2.2,MacIntel,120.0048002,141.2229,141.7966,4,0,0.5697,,,,,,,4,R,,3,3,2,32,3,1,,
,,,,,,,,,,1,beth,2023-09-27_15h43.33.809,Motor_Task,2023.2.2,MacIntel,120.0048002,141.7972,142.4398,1,1,0.6397,,,,,,,10,I,,1,3,3,33,9,1,,
,,,,,,,,,,1,beth,2023-09-27_15h43.33.809,Motor_Task,2023.2.2,MacIntel,120.0048002,142.4404,143.0895,3,1,0.6458,,,,,,,2,R,,3,3,4,34,1,1,,
,,,,,,,,,,1,beth,2023-09-27_15h43.33.809,Motor_Task,2023.2.2,MacIntel,120.0048002,143.0901,143.7399,1,1,0.6486,,,,,,,5,I,,1,3,5,35,4,1,,
,,,,,,,,,,1,beth,2023-09-27_15h43.33.809,Motor_Task,2023.2.2,MacIntel,120.0048002,143.7404,144.2055,2,1,0.461,,,,,,,1,M,,2,3,6,36,0,1,,
,,,,,,,,,,1,beth,2023-09-27_15h43.33.809,Motor_Task,2023.2.2,MacIntel,120.0048002,144.2058,144.6728,3,1,0.4629,,,,,,,7,R,,3,3,7,37,6,1,,
,,,,,,,,,,1,beth,2023-09-27_15h43.33.809,Motor_Task,2023.2.2,MacIntel,120.0048002,144.6733,145.1489,2,1,0.4698,,,,,,,8,M,,2,3,8,38,7,1,,
,,,,,,,,,,1,beth,2023-09-27_15h43.33.809,Motor_Task,2023.2.2,MacIntel,120.0048002,145.1494,145.5907,1,1,0.4408,,,,,,,6,I,,1,3,9,39,5,1,,
,,,,,,,,,,1,beth,2023-09-27_15h43.33.809,Motor_Task,2023.2.2,MacIntel,120.0048002,145.5909,146.3561,3,1,0.7644,,,,,,,4,R,,3,4,0,40,3,1,,
,,,,,,,,,,1,beth,2023-09-27_15h43.33.809,Motor_Task,2023.2.2,MacIntel,120.0048002,146.3567,146.9475,3,1,0.5885,,,,,,,2,R,,3,4,1,41,1,1,,
,,,,,,,,,,1,beth,2023-09-27_15h43.33.809,Motor_Task,2023.2.2,MacIntel,120.0048002,146.9478,147.6134,1,1,0.6638,,,,,,,5,I,,1,4,2,42,4,1,,
,,,,,,,,,,1,beth,2023-09-27_15h43.33.809,Motor_Task,2023.2.2,MacIntel,120.0048002,147.6139,148.04,2,1,0.425,,,,,,,8,M,,2,4,3,43,7,1,,
,,,,,,,,,,1,beth,2023-09-27_15h43.33.809,Motor_Task,2023.2.2,MacIntel,120.0048002,148.0405,148.6227,4,1,0.5807,,,,,,,9,L,,4,4,4,44,8,1,,
,,,,,,,,,,1,beth,2023-09-27_15h43.33.809,Motor_Task,2023.2.2,MacIntel,120.0048002,148.6233,149.1798,2,1,0.5534,,,,,,,3,M,,2,4,5,45,2,1,,
,,,,,,,,,,1,beth,2023-09-27_15h43.33.809,Motor_Task,2023.2.2,MacIntel,120.0048002,149.1803,149.7895,2,1,0.6079,,,,,,,1,M,,2,4,6,46,0,1,,
,,,,,,,,,,1,beth,2023-09-27_15h43.33.809,Motor_Task,2023.2.2,MacIntel,120.0048002,149.79,150.4145,1,1,0.6198,,,,,,,6,I,,1,4,7,47,5,1,,
,,,,,,,,,,1,beth,2023-09-27_15h43.33.809,Motor_Task,2023.2.2,MacIntel,120.0048002,150.415,150.9219,1,1,0.5026,,,,,,,10,I,,1,4,8,48,9,1,,
,,,,,,,,,,1,beth,2023-09-27_15h43.33.809,Motor_Task,2023.2.2,MacIntel,120.0048002,150.9226,151.6225,3,1,0.6961,,,,,,,7,R,,3,4,9,49,6,1,,
,,,,,,,,,,1,beth,2023-09-27_15h43.33.809,Motor_Task,2023.2.2,MacIntel,120.0048002,,,,,,,,,,,,,,,,,,,,,151.6231,155.619