Trigger.started,Trigger.stopped,key_resp_4.keys,key_resp_4.rt,key_resp_4.duration,mouse.x,mouse.y,mouse.leftButton,mouse.midButton,mouse.rightButton,Session,Subject,date,expName,psychopyVersion,OS,frameRate,complex_block.started,complex_block.stopped,key_resp.keys,key_resp.corr,key_resp.rt,key_resp.duration,complex_block_loop.thisRepN,complex_block_loop.thisTrialN,complex_block_loop.thisN,complex_block_loop.thisIndex,complex_block_loop.ran,trial,finger,markerPos,correctResp,new_block_loop.thisRepN,new_block_loop.thisTrialN,new_block_loop.thisN,new_block_loop.thisIndex,new_block_loop.ran,endBuffer.started,endBuffer.stopped
0.001,3.661,1,3.548,,-0.151124132,-0.392565104,0,0,0,1,ear_test_motor_2,2023-09-22_11h15.19.631,Motor_Task,2023.2.2,MacIntel,58.82352941,,,,,,,,,,,,,,,,,,,,,,
,,,,,,,,,,1,ear_test_motor_2,2023-09-22_11h15.19.631,Motor_Task,2023.2.2,MacIntel,58.82352941,3.687,4.261,2,1,0.57,,0,0,0,0,1,1,M,,2,,,,,,,
,,,,,,,,,,1,ear_test_motor_2,2023-09-22_11h15.19.631,Motor_Task,2023.2.2,MacIntel,58.82352941,4.261,4.679,3,1,0.416,,0,1,1,1,1,2,R,,3,,,,,,,
,,,,,,,,,,1,ear_test_motor_2,2023-09-22_11h15.19.631,Motor_Task,2023.2.2,MacIntel,58.82352941,4.68,5.277,2,1,0.589,,0,2,2,2,1,3,M,,2,,,,,,,
,,,,,,,,,,1,ear_test_motor_2,2023-09-22_11h15.19.631,Motor_Task,2023.2.2,MacIntel,58.82352941,5.278,5.794,3,1,0.515,,0,3,3,3,1,4,R,,3,,,,,,,
,,,,,,,,,,1,ear_test_motor_2,2023-09-22_11h15.19.631,Motor_Task,2023.2.2,MacIntel,58.82352941,5.794,6.295,1,1,0.494,,0,4,4,4,1,5,I,,1,,,,,,,
,,,,,,,,,,1,ear_test_motor_2,2023-09-22_11h15.19.631,Motor_Task,2023.2.2,MacIntel,58.82352941,6.295,6.861,1,1,0.558,,0,5,5,5,1,6,I,,1,,,,,,,
,,,,,,,,,,1,ear_test_motor_2,2023-09-22_11h15.19.631,Motor_Task,2023.2.2,MacIntel,58.82352941,6.861,7.394,3,1,0.532,,0,6,6,6,1,7,R,,3,,,,,,,
,,,,,,,,,,1,ear_test_motor_2,2023-09-22_11h15.19.631,Motor_Task,2023.2.2,MacIntel,58.82352941,7.394,7.926,2,1,0.526,,0,7,7,7,1,8,M,,2,,,,,,,
,,,,,,,,,,1,ear_test_motor_2,2023-09-22_11h15.19.631,Motor_Task,2023.2.2,MacIntel,58.82352941,7.927,8.377,4,1,0.442,,0,8,8,8,1,9,L,,4,,,,,,,
,,,,,,,,,,1,ear_test_motor_2,2023-09-22_11h15.19.631,Motor_Task,2023.2.2,MacIntel,58.82352941,8.377,8.81,1,1,0.43,,0,9,9,9,1,10,I,,1,,,,,,,
,,,,,,,,,,1,ear_test_motor_2,2023-09-22_11h15.19.631,Motor_Task,2023.2.2,MacIntel,58.82352941,8.81,9.243,2,1,0.433,,1,0,10,0,1,1,M,,2,,,,,,,
,,,,,,,,,,1,ear_test_motor_2,2023-09-22_11h15.19.631,Motor_Task,2023.2.2,MacIntel,58.82352941,9.243,9.561,3,1,0.311,,1,1,11,1,1,2,R,,3,,,,,,,
,,,,,,,,,,1,ear_test_motor_2,2023-09-22_11h15.19.631,Motor_Task,2023.2.2,MacIntel,58.82352941,9.561,9.909,2,1,0.342,,1,2,12,2,1,3,M,,2,,,,,,,
,,,,,,,,,,1,ear_test_motor_2,2023-09-22_11h15.19.631,Motor_Task,2023.2.2,MacIntel,58.82352941,9.911,10.347,3,1,0.426,,1,3,13,3,1,4,R,,3,,,,,,,
,,,,,,,,,,1,ear_test_motor_2,2023-09-22_11h15.19.631,Motor_Task,2023.2.2,MacIntel,58.82352941,10.347,10.71,1,1,0.363,,1,4,14,4,1,5,I,,1,,,,,,,
,,,,,,,,,,1,ear_test_motor_2,2023-09-22_11h15.19.631,Motor_Task,2023.2.2,MacIntel,58.82352941,10.71,11.093,1,1,0.38,,1,5,15,5,1,6,I,,1,,,,,,,
,,,,,,,,,,1,ear_test_motor_2,2023-09-22_11h15.19.631,Motor_Task,2023.2.2,MacIntel,58.82352941,11.094,11.561,3,1,0.463,,1,6,16,6,1,7,R,,3,,,,,,,
,,,,,,,,,,1,ear_test_motor_2,2023-09-22_11h15.19.631,Motor_Task,2023.2.2,MacIntel,58.82352941,11.561,11.994,2,1,0.43,,1,7,17,7,1,8,M,,2,,,,,,,
,,,,,,,,,,1,ear_test_motor_2,2023-09-22_11h15.19.631,Motor_Task,2023.2.2,MacIntel,58.82352941,11.994,12.412,4,1,0.415,,1,8,18,8,1,9,L,,4,,,,,,,
,,,,,,,,,,1,ear_test_motor_2,2023-09-22_11h15.19.631,Motor_Task,2023.2.2,MacIntel,58.82352941,12.412,12.828,1,1,0.411,,1,9,19,9,1,10,I,,1,,,,,,,
,,,,,,,,,,1,ear_test_motor_2,2023-09-22_11h15.19.631,Motor_Task,2023.2.2,MacIntel,58.82352941,12.828,13.395,2,1,0.562,,2,0,20,0,1,1,M,,2,,,,,,,
,,,,,,,,,,1,ear_test_motor_2,2023-09-22_11h15.19.631,Motor_Task,2023.2.2,MacIntel,58.82352941,13.395,13.743,3,1,0.345,,2,1,21,1,1,2,R,,3,,,,,,,
,,,,,,,,,,1,ear_test_motor_2,2023-09-22_11h15.19.631,Motor_Task,2023.2.2,MacIntel,58.82352941,13.743,14.127,2,1,0.383,,2,2,22,2,1,3,M,,2,,,,,,,
,,,,,,,,,,1,ear_test_motor_2,2023-09-22_11h15.19.631,Motor_Task,2023.2.2,MacIntel,58.82352941,14.128,14.593,3,1,0.463,,2,3,23,3,1,4,R,,3,,,,,,,
,,,,,,,,,,1,ear_test_motor_2,2023-09-22_11h15.19.631,Motor_Task,2023.2.2,MacIntel,58.82352941,14.594,15.126,1,1,0.53,,2,4,24,4,1,5,I,,1,,,,,,,
,,,,,,,,,,1,ear_test_motor_2,2023-09-22_11h15.19.631,Motor_Task,2023.2.2,MacIntel,58.82352941,15.126,15.61,1,1,0.48,,2,5,25,5,1,6,I,,1,,,,,,,
,,,,,,,,,,1,ear_test_motor_2,2023-09-22_11h15.19.631,Motor_Task,2023.2.2,MacIntel,58.82352941,15.61,16.077,3,1,0.463,,2,6,26,6,1,7,R,,3,,,,,,,
,,,,,,,,,,1,ear_test_motor_2,2023-09-22_11h15.19.631,Motor_Task,2023.2.2,MacIntel,58.82352941,16.077,16.527,2,1,0.448,,2,7,27,7,1,8,M,,2,,,,,,,
,,,,,,,,,,1,ear_test_motor_2,2023-09-22_11h15.19.631,Motor_Task,2023.2.2,MacIntel,58.82352941,16.527,17.044,4,1,0.515,,2,8,28,8,1,9,L,,4,,,,,,,
,,,,,,,,,,1,ear_test_motor_2,2023-09-22_11h15.19.631,Motor_Task,2023.2.2,MacIntel,58.82352941,17.044,17.494,1,1,0.443,,2,9,29,9,1,10,I,,1,,,,,,,
,,,,,,,,,,1,ear_test_motor_2,2023-09-22_11h15.19.631,Motor_Task,2023.2.2,MacIntel,58.82352941,17.494,17.96,2,1,0.465,,3,0,30,0,1,1,M,,2,,,,,,,
,,,,,,,,,,1,ear_test_motor_2,2023-09-22_11h15.19.631,Motor_Task,2023.2.2,MacIntel,58.82352941,17.961,18.361,3,1,0.395,,3,1,31,1,1,2,R,,3,,,,,,,
,,,,,,,,,,1,ear_test_motor_2,2023-09-22_11h15.19.631,Motor_Task,2023.2.2,MacIntel,58.82352941,18.361,18.777,2,1,0.412,,3,2,32,2,1,3,M,,2,,,,,,,
,,,,,,,,,,1,ear_test_motor_2,2023-09-22_11h15.19.631,Motor_Task,2023.2.2,MacIntel,58.82352941,18.778,19.193,3,1,0.413,,3,3,33,3,1,4,R,,3,,,,,,,
,,,,,,,,,,1,ear_test_motor_2,2023-09-22_11h15.19.631,Motor_Task,2023.2.2,MacIntel,58.82352941,19.193,19.594,1,1,0.398,,3,4,34,4,1,5,I,,1,,,,,,,
,,,,,,,,,,1,ear_test_motor_2,2023-09-22_11h15.19.631,Motor_Task,2023.2.2,MacIntel,58.82352941,19.595,20.109,1,1,0.512,,3,5,35,5,1,6,I,,1,,,,,,,
,,,,,,,,,,1,ear_test_motor_2,2023-09-22_11h15.19.631,Motor_Task,2023.2.2,MacIntel,58.82352941,20.109,20.627,4,0,0.516,,3,6,36,6,1,7,R,,3,,,,,,,
,,,,,,,,,,1,ear_test_motor_2,2023-09-22_11h15.19.631,Motor_Task,2023.2.2,MacIntel,58.82352941,20.627,21.212,2,1,0.581,,3,7,37,7,1,8,M,,2,,,,,,,
,,,,,,,,,,1,ear_test_motor_2,2023-09-22_11h15.19.631,Motor_Task,2023.2.2,MacIntel,58.82352941,21.212,21.629,4,1,0.412,,3,8,38,8,1,9,L,,4,,,,,,,
,,,,,,,,,,1,ear_test_motor_2,2023-09-22_11h15.19.631,Motor_Task,2023.2.2,MacIntel,58.82352941,21.629,22.076,1,1,0.442,,3,9,39,9,1,10,I,,1,,,,,,,
,,,,,,,,,,1,ear_test_motor_2,2023-09-22_11h15.19.631,Motor_Task,2023.2.2,MacIntel,58.82352941,22.077,22.561,2,1,0.48,,4,0,40,0,1,1,M,,2,,,,,,,
,,,,,,,,,,1,ear_test_motor_2,2023-09-22_11h15.19.631,Motor_Task,2023.2.2,MacIntel,58.82352941,22.561,22.943,3,1,0.379,,4,1,41,1,1,2,R,,3,,,,,,,
,,,,,,,,,,1,ear_test_motor_2,2023-09-22_11h15.19.631,Motor_Task,2023.2.2,MacIntel,58.82352941,22.943,23.328,2,1,0.383,,4,2,42,2,1,3,M,,2,,,,,,,
,,,,,,,,,,1,ear_test_motor_2,2023-09-22_11h15.19.631,Motor_Task,2023.2.2,MacIntel,58.82352941,23.329,23.761,3,1,0.429,,4,3,43,3,1,4,R,,3,,,,,,,
,,,,,,,,,,1,ear_test_motor_2,2023-09-22_11h15.19.631,Motor_Task,2023.2.2,MacIntel,58.82352941,23.762,24.261,1,1,0.496,,4,4,44,4,1,5,I,,1,,,,,,,
,,,,,,,,,,1,ear_test_motor_2,2023-09-22_11h15.19.631,Motor_Task,2023.2.2,MacIntel,58.82352941,24.262,24.727,1,1,0.463,,4,5,45,5,1,6,I,,1,,,,,,,
,,,,,,,,,,1,ear_test_motor_2,2023-09-22_11h15.19.631,Motor_Task,2023.2.2,MacIntel,58.82352941,24.727,25.161,3,1,0.43,,4,6,46,6,1,7,R,,3,,,,,,,
,,,,,,,,,,1,ear_test_motor_2,2023-09-22_11h15.19.631,Motor_Task,2023.2.2,MacIntel,58.82352941,25.161,25.578,2,1,0.413,,4,7,47,7,1,8,M,,2,,,,,,,
,,,,,,,,,,1,ear_test_motor_2,2023-09-22_11h15.19.631,Motor_Task,2023.2.2,MacIntel,58.82352941,25.578,26.01,4,1,0.43,,4,8,48,8,1,9,L,,4,,,,,,,
,,,,,,,,,,1,ear_test_motor_2,2023-09-22_11h15.19.631,Motor_Task,2023.2.2,MacIntel,58.82352941,26.01,26.409,1,1,0.398,,4,9,49,9,1,10,I,,1,,,,,,,
,,,,,,,,,,1,ear_test_motor_2,2023-09-22_11h15.19.631,Motor_Task,2023.2.2,MacIntel,58.82352941,26.41,26.828,2,1,0.414,,5,0,50,0,1,1,M,,2,,,,,,,
,,,,,,,,,,1,ear_test_motor_2,2023-09-22_11h15.19.631,Motor_Task,2023.2.2,MacIntel,58.82352941,26.829,27.127,3,1,0.296,,5,1,51,1,1,2,R,,3,,,,,,,
,,,,,,,,,,1,ear_test_motor_2,2023-09-22_11h15.19.631,Motor_Task,2023.2.2,MacIntel,58.82352941,27.127,27.459,2,1,0.33,,5,2,52,2,1,3,M,,2,,,,,,,
,,,,,,,,,,1,ear_test_motor_2,2023-09-22_11h15.19.631,Motor_Task,2023.2.2,MacIntel,58.82352941,27.459,27.828,3,1,0.359,,5,3,53,3,1,4,R,,3,,,,,,,
,,,,,,,,,,1,ear_test_motor_2,2023-09-22_11h15.19.631,Motor_Task,2023.2.2,MacIntel,58.82352941,27.83,28.209,1,1,0.378,,5,4,54,4,1,5,I,,1,,,,,,,
,,,,,,,,,,1,ear_test_motor_2,2023-09-22_11h15.19.631,Motor_Task,2023.2.2,MacIntel,58.82352941,28.21,28.645,1,1,0.43,,5,5,55,5,1,6,I,,1,,,,,,,
,,,,,,,,,,1,ear_test_motor_2,2023-09-22_11h15.19.631,Motor_Task,2023.2.2,MacIntel,58.82352941,28.645,29.16,3,1,0.513,,5,6,56,6,1,7,R,,3,,,,,,,
,,,,,,,,,,1,ear_test_motor_2,2023-09-22_11h15.19.631,Motor_Task,2023.2.2,MacIntel,58.82352941,29.161,29.56,2,1,0.397,,5,7,57,7,1,8,M,,2,,,,,,,
,,,,,,,,,,1,ear_test_motor_2,2023-09-22_11h15.19.631,Motor_Task,2023.2.2,MacIntel,58.82352941,29.561,29.893,4,1,0.331,,5,8,58,8,1,9,L,,4,,,,,,,
,,,,,,,,,,1,ear_test_motor_2,2023-09-22_11h15.19.631,Motor_Task,2023.2.2,MacIntel,58.82352941,29.893,30.178,1,1,0.28,,5,9,59,9,1,10,I,,1,,,,,,,
,,,,,,,,,,1,ear_test_motor_2,2023-09-22_11h15.19.631,Motor_Task,2023.2.2,MacIntel,58.82352941,30.178,30.677,2,1,0.496,,6,0,60,0,1,1,M,,2,,,,,,,
,,,,,,,,,,1,ear_test_motor_2,2023-09-22_11h15.19.631,Motor_Task,2023.2.2,MacIntel,58.82352941,30.677,31.009,3,1,0.329,,6,1,61,1,1,2,R,,3,,,,,,,
,,,,,,,,,,1,ear_test_motor_2,2023-09-22_11h15.19.631,Motor_Task,2023.2.2,MacIntel,58.82352941,31.009,31.343,2,1,0.33,,6,2,62,2,1,3,M,,2,,,,,,,
,,,,,,,,,,1,ear_test_motor_2,2023-09-22_11h15.19.631,Motor_Task,2023.2.2,MacIntel,58.82352941,31.344,31.843,3,1,0.492,,6,3,63,3,1,4,R,,3,,,,,,,
,,,,,,,,,,1,ear_test_motor_2,2023-09-22_11h15.19.631,Motor_Task,2023.2.2,MacIntel,58.82352941,31.843,32.31,1,1,0.462,,6,4,64,4,1,5,I,,1,,,,,,,
,,,,,,,,,,1,ear_test_motor_2,2023-09-22_11h15.19.631,Motor_Task,2023.2.2,MacIntel,58.82352941,32.311,32.644,1,1,0.33,,6,5,65,5,1,6,I,,1,,,,,,,
,,,,,,,,,,1,ear_test_motor_2,2023-09-22_11h15.19.631,Motor_Task,2023.2.2,MacIntel,58.82352941,32.644,33.077,3,1,0.43,,6,6,66,6,1,7,R,,3,,,,,,,
,,,,,,,,,,1,ear_test_motor_2,2023-09-22_11h15.19.631,Motor_Task,2023.2.2,MacIntel,58.82352941,33.077,33.545,2,1,0.464,,6,7,67,7,1,8,M,,2,,,,,,,
,,,,,,,,,,1,ear_test_motor_2,2023-09-22_11h15.19.631,Motor_Task,2023.2.2,MacIntel,58.82352941,33.545,33.943,4,1,0.396,,6,8,68,8,1,9,L,,4,,,,,,,
,,,,,,,,,,1,ear_test_motor_2,2023-09-22_11h15.19.631,Motor_Task,2023.2.2,MacIntel,58.82352941,33.943,34.278,1,1,0.331,,6,9,69,9,1,10,I,,1,,,,,,,
,,,,,,,,,,1,ear_test_motor_2,2023-09-22_11h15.19.631,Motor_Task,2023.2.2,MacIntel,58.82352941,34.278,34.727,2,1,0.445,,7,0,70,0,1,1,M,,2,,,,,,,
,,,,,,,,,,1,ear_test_motor_2,2023-09-22_11h15.19.631,Motor_Task,2023.2.2,MacIntel,58.82352941,34.727,35.028,3,1,0.296,,7,1,71,1,1,2,R,,3,,,,,,,
,,,,,,,,,,1,ear_test_motor_2,2023-09-22_11h15.19.631,Motor_Task,2023.2.2,MacIntel,58.82352941,35.028,35.376,2,1,0.346,,7,2,72,2,1,3,M,,2,,,,,,,
,,,,,,,,,,1,ear_test_motor_2,2023-09-22_11h15.19.631,Motor_Task,2023.2.2,MacIntel,58.82352941,35.376,35.859,3,1,0.482,,7,3,73,3,1,4,R,,3,,,,,,,
,,,,,,,,,,1,ear_test_motor_2,2023-09-22_11h15.19.631,Motor_Task,2023.2.2,MacIntel,58.82352941,35.859,36.276,1,1,0.415,,7,4,74,4,1,5,I,,1,,,,,,,
,,,,,,,,,,1,ear_test_motor_2,2023-09-22_11h15.19.631,Motor_Task,2023.2.2,MacIntel,58.82352941,36.277,36.626,1,1,0.347,,7,5,75,5,1,6,I,,1,,,,,,,
,,,,,,,,,,1,ear_test_motor_2,2023-09-22_11h15.19.631,Motor_Task,2023.2.2,MacIntel,58.82352941,36.627,37.143,3,1,0.514,,7,6,76,6,1,7,R,,3,,,,,,,
,,,,,,,,,,1,ear_test_motor_2,2023-09-22_11h15.19.631,Motor_Task,2023.2.2,MacIntel,58.82352941,37.143,37.561,2,1,0.413,,7,7,77,7,1,8,M,,2,,,,,,,
,,,,,,,,,,1,ear_test_motor_2,2023-09-22_11h15.19.631,Motor_Task,2023.2.2,MacIntel,58.82352941,37.561,37.843,4,1,0.279,,7,8,78,8,1,9,L,,4,,,,,,,
,,,,,,,,,,1,ear_test_motor_2,2023-09-22_11h15.19.631,Motor_Task,2023.2.2,MacIntel,58.82352941,37.844,38.143,1,1,0.295,,7,9,79,9,1,10,I,,1,,,,,,,
,,,,,,,,,,1,ear_test_motor_2,2023-09-22_11h15.19.631,Motor_Task,2023.2.2,MacIntel,58.82352941,38.144,38.543,2,1,0.397,,8,0,80,0,1,1,M,,2,,,,,,,
,,,,,,,,,,1,ear_test_motor_2,2023-09-22_11h15.19.631,Motor_Task,2023.2.2,MacIntel,58.82352941,38.543,38.86,3,1,0.314,,8,1,81,1,1,2,R,,3,,,,,,,
,,,,,,,,,,1,ear_test_motor_2,2023-09-22_11h15.19.631,Motor_Task,2023.2.2,MacIntel,58.82352941,38.861,39.194,2,1,0.33,,8,2,82,2,1,3,M,,2,,,,,,,
,,,,,,,,,,1,ear_test_motor_2,2023-09-22_11h15.19.631,Motor_Task,2023.2.2,MacIntel,58.82352941,39.194,39.644,3,1,0.447,,8,3,83,3,1,4,R,,3,,,,,,,
,,,,,,,,,,1,ear_test_motor_2,2023-09-22_11h15.19.631,Motor_Task,2023.2.2,MacIntel,58.82352941,39.644,39.96,1,1,0.314,,8,4,84,4,1,5,I,,1,,,,,,,
,,,,,,,,,,1,ear_test_motor_2,2023-09-22_11h15.19.631,Motor_Task,2023.2.2,MacIntel,58.82352941,39.96,40.327,1,1,0.364,,8,5,85,5,1,6,I,,1,,,,,,,
,,,,,,,,,,1,ear_test_motor_2,2023-09-22_11h15.19.631,Motor_Task,2023.2.2,MacIntel,58.82352941,40.327,40.628,3,1,0.299,,8,6,86,6,1,7,R,,3,,,,,,,
,,,,,,,,,,1,ear_test_motor_2,2023-09-22_11h15.19.631,Motor_Task,2023.2.2,MacIntel,58.82352941,40.628,40.978,2,1,0.345,,8,7,87,7,1,8,M,,2,,,,,,,
,,,,,,,,,,1,ear_test_motor_2,2023-09-22_11h15.19.631,Motor_Task,2023.2.2,MacIntel,58.82352941,40.979,41.527,4,1,0.544,,8,8,88,8,1,9,L,,4,,,,,,,
,,,,,,,,,,1,ear_test_motor_2,2023-09-22_11h15.19.631,Motor_Task,2023.2.2,MacIntel,58.82352941,41.528,41.877,1,1,0.346,,8,9,89,9,1,10,I,,1,,,,,,,
,,,,,,,,,,1,ear_test_motor_2,2023-09-22_11h15.19.631,Motor_Task,2023.2.2,MacIntel,58.82352941,41.877,42.427,2,1,0.546,,9,0,90,0,1,1,M,,2,,,,,,,
,,,,,,,,,,1,ear_test_motor_2,2023-09-22_11h15.19.631,Motor_Task,2023.2.2,MacIntel,58.82352941,42.427,42.744,3,1,0.314,,9,1,91,1,1,2,R,,3,,,,,,,
,,,,,,,,,,1,ear_test_motor_2,2023-09-22_11h15.19.631,Motor_Task,2023.2.2,MacIntel,58.82352941,42.744,43.077,2,1,0.331,,9,2,92,2,1,3,M,,2,,,,,,,
,,,,,,,,,,1,ear_test_motor_2,2023-09-22_11h15.19.631,Motor_Task,2023.2.2,MacIntel,58.82352941,43.078,43.476,3,1,0.395,,9,3,93,3,1,4,R,,3,,,,,,,
,,,,,,,,,,1,ear_test_motor_2,2023-09-22_11h15.19.631,Motor_Task,2023.2.2,MacIntel,58.82352941,43.476,43.777,1,1,0.297,,9,4,94,4,1,5,I,,1,,,,,,,
,,,,,,,,,,1,ear_test_motor_2,2023-09-22_11h15.19.631,Motor_Task,2023.2.2,MacIntel,58.82352941,43.777,44.143,1,1,0.363,,9,5,95,5,1,6,I,,1,,,,,,,
,,,,,,,,,,1,ear_test_motor_2,2023-09-22_11h15.19.631,Motor_Task,2023.2.2,MacIntel,58.82352941,44.144,44.46,3,1,0.314,,9,6,96,6,1,7,R,,3,,,,,,,
,,,,,,,,,,1,ear_test_motor_2,2023-09-22_11h15.19.631,Motor_Task,2023.2.2,MacIntel,58.82352941,44.46,44.878,2,1,0.415,,9,7,97,7,1,8,M,,2,,,,,,,
,,,,,,,,,,1,ear_test_motor_2,2023-09-22_11h15.19.631,Motor_Task,2023.2.2,MacIntel,58.82352941,44.878,45.394,4,1,0.513,,9,8,98,8,1,9,L,,4,,,,,,,
,,,,,,,,,,1,ear_test_motor_2,2023-09-22_11h15.19.631,Motor_Task,2023.2.2,MacIntel,58.82352941,45.394,45.726,1,1,0.329,,9,9,99,9,1,10,I,,1,,,,,,,
,,,,,,,,,,1,ear_test_motor_2,2023-09-22_11h15.19.631,Motor_Task,2023.2.2,MacIntel,58.82352941,45.726,46.243,2,1,0.514,,10,0,100,0,1,1,M,,2,,,,,,,
,,,,,,,,,,1,ear_test_motor_2,2023-09-22_11h15.19.631,Motor_Task,2023.2.2,MacIntel,58.82352941,46.243,46.56,3,1,0.314,,10,1,101,1,1,2,R,,3,,,,,,,
,,,,,,,,,,1,ear_test_motor_2,2023-09-22_11h15.19.631,Motor_Task,2023.2.2,MacIntel,58.82352941,46.561,46.91,2,1,0.347,,10,2,102,2,1,3,M,,2,,,,,,,
,,,,,,,,,,1,ear_test_motor_2,2023-09-22_11h15.19.631,Motor_Task,2023.2.2,MacIntel,58.82352941,46.91,47.376,3,1,0.463,,10,3,103,3,1,4,R,,3,,,,,,,
,,,,,,,,,,1,ear_test_motor_2,2023-09-22_11h15.19.631,Motor_Task,2023.2.2,MacIntel,58.82352941,47.376,47.71,1,1,0.332,,10,4,104,4,1,5,I,,1,,,,,,,
,,,,,,,,,,1,ear_test_motor_2,2023-09-22_11h15.19.631,Motor_Task,2023.2.2,MacIntel,58.82352941,47.71,48.095,1,1,0.377,,10,5,105,5,1,6,I,,1,,,,,,,
,,,,,,,,,,1,ear_test_motor_2,2023-09-22_11h15.19.631,Motor_Task,2023.2.2,MacIntel,58.82352941,48.095,48.479,3,1,0.376,,10,6,106,6,1,7,R,,3,,,,,,,
,,,,,,,,,,1,ear_test_motor_2,2023-09-22_11h15.19.631,Motor_Task,2023.2.2,MacIntel,58.82352941,48.479,48.879,2,1,0.395,,10,7,107,7,1,8,M,,2,,,,,,,
,,,,,,,,,,1,ear_test_motor_2,2023-09-22_11h15.19.631,Motor_Task,2023.2.2,MacIntel,58.82352941,48.879,49.277,4,1,0.395,,10,8,108,8,1,9,L,,4,,,,,,,
,,,,,,,,,,1,ear_test_motor_2,2023-09-22_11h15.19.631,Motor_Task,2023.2.2,MacIntel,58.82352941,49.277,49.627,1,1,0.348,,10,9,109,9,1,10,I,,1,,,,,,,
,,,,,,,,,,1,ear_test_motor_2,2023-09-22_11h15.19.631,Motor_Task,2023.2.2,MacIntel,58.82352941,49.627,50.109,2,1,0.481,,11,0,110,0,1,1,M,,2,,,,,,,
,,,,,,,,,,1,ear_test_motor_2,2023-09-22_11h15.19.631,Motor_Task,2023.2.2,MacIntel,58.82352941,50.11,50.443,3,1,0.33,,11,1,111,1,1,2,R,,3,,,,,,,
,,,,,,,,,,1,ear_test_motor_2,2023-09-22_11h15.19.631,Motor_Task,2023.2.2,MacIntel,58.82352941,50.444,50.812,2,1,0.367,,11,2,112,2,1,3,M,,2,,,,,,,
,,,,,,,,,,1,ear_test_motor_2,2023-09-22_11h15.19.631,Motor_Task,2023.2.2,MacIntel,58.82352941,50.812,51.244,1,0,0.429,,11,3,113,3,1,4,R,,3,,,,,,,
,,,,,,,,,,1,ear_test_motor_2,2023-09-22_11h15.19.631,Motor_Task,2023.2.2,MacIntel,58.82352941,51.244,51.91,1,1,0.664,,11,4,114,4,1,5,I,,1,,,,,,,
,,,,,,,,,,1,ear_test_motor_2,2023-09-22_11h15.19.631,Motor_Task,2023.2.2,MacIntel,58.82352941,51.91,52.377,1,1,0.466,,11,5,115,5,1,6,I,,1,,,,,,,
,,,,,,,,,,1,ear_test_motor_2,2023-09-22_11h15.19.631,Motor_Task,2023.2.2,MacIntel,58.82352941,52.377,52.894,3,1,0.513,,11,6,116,6,1,7,R,,3,,,,,,,
,,,,,,,,,,1,ear_test_motor_2,2023-09-22_11h15.19.631,Motor_Task,2023.2.2,MacIntel,58.82352941,52.894,53.245,2,1,0.347,,11,7,117,7,1,8,M,,2,,,,,,,
,,,,,,,,,,1,ear_test_motor_2,2023-09-22_11h15.19.631,Motor_Task,2023.2.2,MacIntel,58.82352941,53.246,53.694,4,1,0.444,,11,8,118,8,1,9,L,,4,,,,,,,
,,,,,,,,,,1,ear_test_motor_2,2023-09-22_11h15.19.631,Motor_Task,2023.2.2,MacIntel,58.82352941,53.694,53.994,1,1,0.295,,11,9,119,9,1,10,I,,1,,,,,,,
,,,,,,,,,,1,ear_test_motor_2,2023-09-22_11h15.19.631,Motor_Task,2023.2.2,MacIntel,58.82352941,53.994,54.427,2,1,0.429,,12,0,120,0,1,1,M,,2,,,,,,,
,,,,,,,,,,1,ear_test_motor_2,2023-09-22_11h15.19.631,Motor_Task,2023.2.2,MacIntel,58.82352941,54.427,54.742,3,1,0.312,,12,1,121,1,1,2,R,,3,,,,,,,
,,,,,,,,,,1,ear_test_motor_2,2023-09-22_11h15.19.631,Motor_Task,2023.2.2,MacIntel,58.82352941,54.743,55.094,2,1,0.346,,12,2,122,2,1,3,M,,2,,,,,,,
,,,,,,,,,,1,ear_test_motor_2,2023-09-22_11h15.19.631,Motor_Task,2023.2.2,MacIntel,58.82352941,55.094,55.46,3,1,0.362,,12,3,123,3,1,4,R,,3,,,,,,,
,,,,,,,,,,1,ear_test_motor_2,2023-09-22_11h15.19.631,Motor_Task,2023.2.2,MacIntel,58.82352941,55.46,55.91,1,1,0.445,,12,4,124,4,1,5,I,,1,,,,,,,
,,,,,,,,,,1,ear_test_motor_2,2023-09-22_11h15.19.631,Motor_Task,2023.2.2,MacIntel,58.82352941,55.91,56.36,1,1,0.449,,12,5,125,5,1,6,I,,1,,,,,,,
,,,,,,,,,,1,ear_test_motor_2,2023-09-22_11h15.19.631,Motor_Task,2023.2.2,MacIntel,58.82352941,56.361,56.777,2,0,0.411,,12,6,126,6,1,7,R,,3,,,,,,,
,,,,,,,,,,1,ear_test_motor_2,2023-09-22_11h15.19.631,Motor_Task,2023.2.2,MacIntel,58.82352941,56.778,57.243,2,1,0.462,,12,7,127,7,1,8,M,,2,,,,,,,
,,,,,,,,,,1,ear_test_motor_2,2023-09-22_11h15.19.631,Motor_Task,2023.2.2,MacIntel,58.82352941,57.243,57.613,4,1,0.368,,12,8,128,8,1,9,L,,4,,,,,,,
,,,,,,,,,,1,ear_test_motor_2,2023-09-22_11h15.19.631,Motor_Task,2023.2.2,MacIntel,58.82352941,57.613,57.942,1,1,0.329,,12,9,129,9,1,10,I,,1,,,,,,,
,,,,,,,,,,1,ear_test_motor_2,2023-09-22_11h15.19.631,Motor_Task,2023.2.2,MacIntel,58.82352941,57.943,58.327,3,0,0.381,,13,0,130,0,1,1,M,,2,,,,,,,
,,,,,,,,,,1,ear_test_motor_2,2023-09-22_11h15.19.631,Motor_Task,2023.2.2,MacIntel,58.82352941,58.327,58.86,3,1,0.53,,13,1,131,1,1,2,R,,3,,,,,,,
,,,,,,,,,,1,ear_test_motor_2,2023-09-22_11h15.19.631,Motor_Task,2023.2.2,MacIntel,58.82352941,58.86,59.544,2,1,0.679,,13,2,132,2,1,3,M,,2,,,,,,,
,,,,,,,,,,1,ear_test_motor_2,2023-09-22_11h15.19.631,Motor_Task,2023.2.2,MacIntel,58.82352941,59.544,59.993,3,1,0.446,,13,3,133,3,1,4,R,,3,,,,,,,
,,,,,,,,,,1,ear_test_motor_2,2023-09-22_11h15.19.631,Motor_Task,2023.2.2,MacIntel,58.82352941,59.993,60.378,1,1,0.384,,13,4,134,4,1,5,I,,1,,,,,,,
,,,,,,,,,,1,ear_test_motor_2,2023-09-22_11h15.19.631,Motor_Task,2023.2.2,MacIntel,58.82352941,60.379,60.743,1,1,0.361,,13,5,135,5,1,6,I,,1,,,,,,,
,,,,,,,,,,1,ear_test_motor_2,2023-09-22_11h15.19.631,Motor_Task,2023.2.2,MacIntel,58.82352941,60.743,61.177,3,1,0.431,,13,6,136,6,1,7,R,,3,,,,,,,
,,,,,,,,,,1,ear_test_motor_2,2023-09-22_11h15.19.631,Motor_Task,2023.2.2,MacIntel,58.82352941,61.177,61.527,2,1,0.347,,13,7,137,7,1,8,M,,2,,,,,,,
,,,,,,,,,,1,ear_test_motor_2,2023-09-22_11h15.19.631,Motor_Task,2023.2.2,MacIntel,58.82352941,61.528,61.877,3,0,0.347,,13,8,138,8,1,9,L,,4,,,,,,,
,,,,,,,,,,1,ear_test_motor_2,2023-09-22_11h15.19.631,Motor_Task,2023.2.2,MacIntel,58.82352941,61.877,62.378,1,1,0.496,,13,9,139,9,1,10,I,,1,,,,,,,
,,,,,,,,,,1,ear_test_motor_2,2023-09-22_11h15.19.631,Motor_Task,2023.2.2,MacIntel,58.82352941,62.378,62.843,2,1,0.46,,14,0,140,0,1,1,M,,2,,,,,,,
,,,,,,,,,,1,ear_test_motor_2,2023-09-22_11h15.19.631,Motor_Task,2023.2.2,MacIntel,58.82352941,62.843,63.176,3,1,0.329,,14,1,141,1,1,2,R,,3,,,,,,,
,,,,,,,,,,1,ear_test_motor_2,2023-09-22_11h15.19.631,Motor_Task,2023.2.2,MacIntel,58.82352941,63.177,63.526,2,1,0.346,,14,2,142,2,1,3,M,,2,,,,,,,
,,,,,,,,,,1,ear_test_motor_2,2023-09-22_11h15.19.631,Motor_Task,2023.2.2,MacIntel,58.82352941,63.526,63.859,3,1,0.331,,14,3,143,3,1,4,R,,3,,,,,,,
,,,,,,,,,,1,ear_test_motor_2,2023-09-22_11h15.19.631,Motor_Task,2023.2.2,MacIntel,58.82352941,63.859,64.193,1,1,0.331,,14,4,144,4,1,5,I,,1,,,,,,,
,,,,,,,,,,1,ear_test_motor_2,2023-09-22_11h15.19.631,Motor_Task,2023.2.2,MacIntel,58.82352941,64.193,64.51,1,1,0.314,,14,5,145,5,1,6,I,,1,,,,,,,
,,,,,,,,,,1,ear_test_motor_2,2023-09-22_11h15.19.631,Motor_Task,2023.2.2,MacIntel,58.82352941,64.511,64.796,3,1,0.28,,14,6,146,6,1,7,R,,3,,,,,,,
,,,,,,,,,,1,ear_test_motor_2,2023-09-22_11h15.19.631,Motor_Task,2023.2.2,MacIntel,58.82352941,64.796,65.126,2,1,0.326,,14,7,147,7,1,8,M,,2,,,,,,,
,,,,,,,,,,1,ear_test_motor_2,2023-09-22_11h15.19.631,Motor_Task,2023.2.2,MacIntel,58.82352941,65.126,65.393,4,1,0.263,,14,8,148,8,1,9,L,,4,,,,,,,
,,,,,,,,,,1,ear_test_motor_2,2023-09-22_11h15.19.631,Motor_Task,2023.2.2,MacIntel,58.82352941,65.393,65.694,1,1,0.294,,14,9,149,9,1,10,I,,1,,,,,,,
,,,,,,,,,,1,ear_test_motor_2,2023-09-22_11h15.19.631,Motor_Task,2023.2.2,MacIntel,58.82352941,65.694,65.993,3,0,0.297,,15,0,150,0,1,1,M,,2,,,,,,,
,,,,,,,,,,1,ear_test_motor_2,2023-09-22_11h15.19.631,Motor_Task,2023.2.2,MacIntel,58.82352941,65.994,67.376,2,0,1.379,,15,1,151,1,1,2,R,,3,,,,,,,
,,,,,,,,,,1,ear_test_motor_2,2023-09-22_11h15.19.631,Motor_Task,2023.2.2,MacIntel,58.82352941,67.376,68.076,2,1,0.699,,15,2,152,2,1,3,M,,2,,,,,,,
,,,,,,,,,,1,ear_test_motor_2,2023-09-22_11h15.19.631,Motor_Task,2023.2.2,MacIntel,58.82352941,68.076,68.544,3,1,0.463,,15,3,153,3,1,4,R,,3,,,,,,,
,,,,,,,,,,1,ear_test_motor_2,2023-09-22_11h15.19.631,Motor_Task,2023.2.2,MacIntel,58.82352941,68.545,68.91,1,1,0.361,,15,4,154,4,1,5,I,,1,,,,,,,
,,,,,,,,,,1,ear_test_motor_2,2023-09-22_11h15.19.631,Motor_Task,2023.2.2,MacIntel,58.82352941,68.91,69.244,1,1,0.325,,15,5,155,5,1,6,I,,1,,,,,,,
,,,,,,,,,,1,ear_test_motor_2,2023-09-22_11h15.19.631,Motor_Task,2023.2.2,MacIntel,58.82352941,69.244,69.611,3,1,0.366,,15,6,156,6,1,7,R,,3,,,,,,,
,,,,,,,,,,1,ear_test_motor_2,2023-09-22_11h15.19.631,Motor_Task,2023.2.2,MacIntel,58.82352941,69.611,69.976,4,0,0.364,,15,7,157,7,1,8,M,,2,,,,,,,
,,,,,,,,,,1,ear_test_motor_2,2023-09-22_11h15.19.631,Motor_Task,2023.2.2,MacIntel,58.82352941,69.976,70.527,4,1,0.548,,15,8,158,8,1,9,L,,4,,,,,,,
,,,,,,,,,,1,ear_test_motor_2,2023-09-22_11h15.19.631,Motor_Task,2023.2.2,MacIntel,58.82352941,70.527,70.877,1,1,0.346,,15,9,159,9,1,10,I,,1,,,,,,,
,,,,,,,,,,1,ear_test_motor_2,2023-09-22_11h15.19.631,Motor_Task,2023.2.2,MacIntel,58.82352941,70.878,71.459,2,1,0.579,,16,0,160,0,1,1,M,,2,,,,,,,
,,,,,,,,,,1,ear_test_motor_2,2023-09-22_11h15.19.631,Motor_Task,2023.2.2,MacIntel,58.82352941,71.459,71.793,3,1,0.332,,16,1,161,1,1,2,R,,3,,,,,,,
,,,,,,,,,,1,ear_test_motor_2,2023-09-22_11h15.19.631,Motor_Task,2023.2.2,MacIntel,58.82352941,71.793,72.126,2,1,0.333,,16,2,162,2,1,3,M,,2,,,,,,,
,,,,,,,,,,1,ear_test_motor_2,2023-09-22_11h15.19.631,Motor_Task,2023.2.2,MacIntel,58.82352941,72.127,72.494,3,1,0.364,,16,3,163,3,1,4,R,,3,,,,,,,
,,,,,,,,,,1,ear_test_motor_2,2023-09-22_11h15.19.631,Motor_Task,2023.2.2,MacIntel,58.82352941,72.494,72.83,1,1,0.33,,16,4,164,4,1,5,I,,1,,,,,,,
,,,,,,,,,,1,ear_test_motor_2,2023-09-22_11h15.19.631,Motor_Task,2023.2.2,MacIntel,58.82352941,72.83,73.128,1,1,0.294,,16,5,165,5,1,6,I,,1,,,,,,,
,,,,,,,,,,1,ear_test_motor_2,2023-09-22_11h15.19.631,Motor_Task,2023.2.2,MacIntel,58.82352941,73.129,73.393,3,1,0.263,,16,6,166,6,1,7,R,,3,,,,,,,
,,,,,,,,,,1,ear_test_motor_2,2023-09-22_11h15.19.631,Motor_Task,2023.2.2,MacIntel,58.82352941,73.394,73.726,2,1,0.323,,16,7,167,7,1,8,M,,2,,,,,,,
,,,,,,,,,,1,ear_test_motor_2,2023-09-22_11h15.19.631,Motor_Task,2023.2.2,MacIntel,58.82352941,73.727,74.026,4,1,0.297,,16,8,168,8,1,9,L,,4,,,,,,,
,,,,,,,,,,1,ear_test_motor_2,2023-09-22_11h15.19.631,Motor_Task,2023.2.2,MacIntel,58.82352941,74.026,74.359,1,1,0.33,,16,9,169,9,1,10,I,,1,,,,,,,
,,,,,,,,,,1,ear_test_motor_2,2023-09-22_11h15.19.631,Motor_Task,2023.2.2,MacIntel,58.82352941,74.36,74.743,2,1,0.381,,17,0,170,0,1,1,M,,2,,,,,,,
,,,,,,,,,,1,ear_test_motor_2,2023-09-22_11h15.19.631,Motor_Task,2023.2.2,MacIntel,58.82352941,74.743,75.043,3,1,0.298,,17,1,171,1,1,2,R,,3,,,,,,,
,,,,,,,,,,1,ear_test_motor_2,2023-09-22_11h15.19.631,Motor_Task,2023.2.2,MacIntel,58.82352941,75.043,75.362,2,1,0.313,,17,2,172,2,1,3,M,,2,,,,,,,
,,,,,,,,,,1,ear_test_motor_2,2023-09-22_11h15.19.631,Motor_Task,2023.2.2,MacIntel,58.82352941,75.362,75.678,3,1,0.312,,17,3,173,3,1,4,R,,3,,,,,,,
,,,,,,,,,,1,ear_test_motor_2,2023-09-22_11h15.19.631,Motor_Task,2023.2.2,MacIntel,58.82352941,75.678,75.995,1,1,0.311,,17,4,174,4,1,5,I,,1,,,,,,,
,,,,,,,,,,1,ear_test_motor_2,2023-09-22_11h15.19.631,Motor_Task,2023.2.2,MacIntel,58.82352941,75.996,76.296,1,1,0.296,,17,5,175,5,1,6,I,,1,,,,,,,
,,,,,,,,,,1,ear_test_motor_2,2023-09-22_11h15.19.631,Motor_Task,2023.2.2,MacIntel,58.82352941,76.296,76.577,3,1,0.274,,17,6,176,6,1,7,R,,3,,,,,,,
,,,,,,,,,,1,ear_test_motor_2,2023-09-22_11h15.19.631,Motor_Task,2023.2.2,MacIntel,58.82352941,76.577,76.893,2,1,0.31,,17,7,177,7,1,8,M,,2,,,,,,,
,,,,,,,,,,1,ear_test_motor_2,2023-09-22_11h15.19.631,Motor_Task,2023.2.2,MacIntel,58.82352941,76.894,77.277,4,1,0.379,,17,8,178,8,1,9,L,,4,,,,,,,
,,,,,,,,,,1,ear_test_motor_2,2023-09-22_11h15.19.631,Motor_Task,2023.2.2,MacIntel,58.82352941,77.277,77.577,1,1,0.299,,17,9,179,9,1,10,I,,1,,,,,,,
,,,,,,,,,,1,ear_test_motor_2,2023-09-22_11h15.19.631,Motor_Task,2023.2.2,MacIntel,58.82352941,77.578,77.961,2,1,0.379,,18,0,180,0,1,1,M,,2,,,,,,,
,,,,,,,,,,1,ear_test_motor_2,2023-09-22_11h15.19.631,Motor_Task,2023.2.2,MacIntel,58.82352941,77.963,78.26,3,1,0.295,,18,1,181,1,1,2,R,,3,,,,,,,
,,,,,,,,,,1,ear_test_motor_2,2023-09-22_11h15.19.631,Motor_Task,2023.2.2,MacIntel,58.82352941,78.26,78.559,2,1,0.297,,18,2,182,2,1,3,M,,2,,,,,,,
,,,,,,,,,,1,ear_test_motor_2,2023-09-22_11h15.19.631,Motor_Task,2023.2.2,MacIntel,58.82352941,78.56,78.892,3,1,0.331,,18,3,183,3,1,4,R,,3,,,,,,,
,,,,,,,,,,1,ear_test_motor_2,2023-09-22_11h15.19.631,Motor_Task,2023.2.2,MacIntel,58.82352941,78.893,79.18,1,1,0.28,,18,4,184,4,1,5,I,,1,,,,,,,
,,,,,,,,,,1,ear_test_motor_2,2023-09-22_11h15.19.631,Motor_Task,2023.2.2,MacIntel,58.82352941,79.18,79.493,1,1,0.312,,18,5,185,5,1,6,I,,1,,,,,,,
,,,,,,,,,,1,ear_test_motor_2,2023-09-22_11h15.19.631,Motor_Task,2023.2.2,MacIntel,58.82352941,79.493,79.809,3,1,0.313,,18,6,186,6,1,7,R,,3,,,,,,,
,,,,,,,,,,1,ear_test_motor_2,2023-09-22_11h15.19.631,Motor_Task,2023.2.2,MacIntel,58.82352941,79.81,80.145,2,1,0.331,,18,7,187,7,1,8,M,,2,,,,,,,
,,,,,,,,,,1,ear_test_motor_2,2023-09-22_11h15.19.631,Motor_Task,2023.2.2,MacIntel,58.82352941,80.146,80.429,4,1,0.278,,18,8,188,8,1,9,L,,4,,,,,,,
,,,,,,,,,,1,ear_test_motor_2,2023-09-22_11h15.19.631,Motor_Task,2023.2.2,MacIntel,58.82352941,80.43,80.744,1,1,0.311,,18,9,189,9,1,10,I,,1,,,,,,,
,,,,,,,,,,1,ear_test_motor_2,2023-09-22_11h15.19.631,Motor_Task,2023.2.2,MacIntel,58.82352941,80.744,81.096,2,1,0.346,,19,0,190,0,1,1,M,,2,,,,,,,
,,,,,,,,,,1,ear_test_motor_2,2023-09-22_11h15.19.631,Motor_Task,2023.2.2,MacIntel,58.82352941,81.096,81.378,3,1,0.278,,19,1,191,1,1,2,R,,3,,,,,,,
,,,,,,,,,,1,ear_test_motor_2,2023-09-22_11h15.19.631,Motor_Task,2023.2.2,MacIntel,58.82352941,81.379,81.695,2,1,0.311,,19,2,192,2,1,3,M,,2,,,,,,,
,,,,,,,,,,1,ear_test_motor_2,2023-09-22_11h15.19.631,Motor_Task,2023.2.2,MacIntel,58.82352941,81.696,81.976,3,1,0.28,,19,3,193,3,1,4,R,,3,,,,,,,
,,,,,,,,,,1,ear_test_motor_2,2023-09-22_11h15.19.631,Motor_Task,2023.2.2,MacIntel,58.82352941,81.976,82.279,1,1,0.297,,19,4,194,4,1,5,I,,1,,,,,,,
,,,,,,,,,,1,ear_test_motor_2,2023-09-22_11h15.19.631,Motor_Task,2023.2.2,MacIntel,58.82352941,82.279,82.559,1,1,0.279,,19,5,195,5,1,6,I,,1,,,,,,,
,,,,,,,,,,1,ear_test_motor_2,2023-09-22_11h15.19.631,Motor_Task,2023.2.2,MacIntel,58.82352941,82.56,82.828,3,1,0.263,,19,6,196,6,1,7,R,,3,,,,,,,
,,,,,,,,,,1,ear_test_motor_2,2023-09-22_11h15.19.631,Motor_Task,2023.2.2,MacIntel,58.82352941,82.828,83.11,2,1,0.279,,19,7,197,7,1,8,M,,2,,,,,,,
,,,,,,,,,,1,ear_test_motor_2,2023-09-22_11h15.19.631,Motor_Task,2023.2.2,MacIntel,58.82352941,83.11,83.378,4,1,0.262,,19,8,198,8,1,9,L,,4,,,,,,,
,,,,,,,,,,1,ear_test_motor_2,2023-09-22_11h15.19.631,Motor_Task,2023.2.2,MacIntel,58.82352941,83.379,83.679,1,1,0.295,,19,9,199,9,1,10,I,,1,,,,,,,
,,,,,,,,,,1,ear_test_motor_2,2023-09-22_11h15.19.631,Motor_Task,2023.2.2,MacIntel,58.82352941,83.687,83.925,3,0,0.236,,,,,,,1,M,,2,0,0,0,0,1,,
,,,,,,,,,,1,ear_test_motor_2,2023-09-22_11h15.19.631,Motor_Task,2023.2.2,MacIntel,58.82352941,83.926,84.212,2,1,0.281,,,,,,,8,M,,2,0,1,1,7,1,,
,,,,,,,,,,1,ear_test_motor_2,2023-09-22_11h15.19.631,Motor_Task,2023.2.2,MacIntel,58.82352941,84.213,84.959,3,1,0.742,,,,,,,7,R,,3,0,2,2,6,1,,
,,,,,,,,,,1,ear_test_motor_2,2023-09-22_11h15.19.631,Motor_Task,2023.2.2,MacIntel,58.82352941,84.959,85.961,1,1,0.998,,,,,,,5,I,,1,0,3,3,4,1,,
,,,,,,,,,,1,ear_test_motor_2,2023-09-22_11h15.19.631,Motor_Task,2023.2.2,MacIntel,58.82352941,85.961,86.61,4,1,0.646,,,,,,,9,L,,4,0,4,4,8,1,,
,,,,,,,,,,1,ear_test_motor_2,2023-09-22_11h15.19.631,Motor_Task,2023.2.2,MacIntel,58.82352941,86.61,87.128,1,1,0.514,,,,,,,6,I,,1,0,5,5,5,1,,
,,,,,,,,,,1,ear_test_motor_2,2023-09-22_11h15.19.631,Motor_Task,2023.2.2,MacIntel,58.82352941,87.128,87.661,3,1,0.529,,,,,,,2,R,,3,0,6,6,1,1,,
,,,,,,,,,,1,ear_test_motor_2,2023-09-22_11h15.19.631,Motor_Task,2023.2.2,MacIntel,58.82352941,87.662,88.128,2,1,0.461,,,,,,,3,M,,2,0,7,7,2,1,,
,,,,,,,,,,1,ear_test_motor_2,2023-09-22_11h15.19.631,Motor_Task,2023.2.2,MacIntel,58.82352941,88.129,88.61,3,1,0.476,,,,,,,4,R,,3,0,8,8,3,1,,
,,,,,,,,,,1,ear_test_motor_2,2023-09-22_11h15.19.631,Motor_Task,2023.2.2,MacIntel,58.82352941,88.61,89.076,1,1,0.459,,,,,,,10,I,,1,0,9,9,9,1,,
,,,,,,,,,,1,ear_test_motor_2,2023-09-22_11h15.19.631,Motor_Task,2023.2.2,MacIntel,58.82352941,89.076,89.576,1,1,0.497,,,,,,,5,I,,1,1,0,10,4,1,,
,,,,,,,,,,1,ear_test_motor_2,2023-09-22_11h15.19.631,Motor_Task,2023.2.2,MacIntel,58.82352941,89.576,90.043,1,1,0.462,,,,,,,10,I,,1,1,1,11,9,1,,
,,,,,,,,,,1,ear_test_motor_2,2023-09-22_11h15.19.631,Motor_Task,2023.2.2,MacIntel,58.82352941,90.043,90.547,3,1,0.497,,,,,,,4,R,,3,1,2,12,3,1,,
,,,,,,,,,,1,ear_test_motor_2,2023-09-22_11h15.19.631,Motor_Task,2023.2.2,MacIntel,58.82352941,90.547,91.042,4,0,0.493,,,,,,,2,R,,3,1,3,13,1,1,,
,,,,,,,,,,1,ear_test_motor_2,2023-09-22_11h15.19.631,Motor_Task,2023.2.2,MacIntel,58.82352941,91.042,91.411,3,1,0.359,,,,,,,7,R,,3,1,4,14,6,1,,
,,,,,,,,,,1,ear_test_motor_2,2023-09-22_11h15.19.631,Motor_Task,2023.2.2,MacIntel,58.82352941,91.412,91.993,2,1,0.581,,,,,,,1,M,,2,1,5,15,0,1,,
,,,,,,,,,,1,ear_test_motor_2,2023-09-22_11h15.19.631,Motor_Task,2023.2.2,MacIntel,58.82352941,91.994,92.477,2,1,0.478,,,,,,,3,M,,2,1,6,16,2,1,,
,,,,,,,,,,1,ear_test_motor_2,2023-09-22_11h15.19.631,Motor_Task,2023.2.2,MacIntel,58.82352941,92.478,92.979,2,1,0.488,,,,,,,8,M,,2,1,7,17,7,1,,
,,,,,,,,,,1,ear_test_motor_2,2023-09-22_11h15.19.631,Motor_Task,2023.2.2,MacIntel,58.82352941,92.979,93.527,4,1,0.543,,,,,,,9,L,,4,1,8,18,8,1,,
,,,,,,,,,,1,ear_test_motor_2,2023-09-22_11h15.19.631,Motor_Task,2023.2.2,MacIntel,58.82352941,93.529,94.077,1,1,0.546,,,,,,,6,I,,1,1,9,19,5,1,,
,,,,,,,,,,1,ear_test_motor_2,2023-09-22_11h15.19.631,Motor_Task,2023.2.2,MacIntel,58.82352941,94.078,94.594,2,1,0.511,,,,,,,1,M,,2,2,0,20,0,1,,
,,,,,,,,,,1,ear_test_motor_2,2023-09-22_11h15.19.631,Motor_Task,2023.2.2,MacIntel,58.82352941,94.595,95.126,3,1,0.528,,,,,,,2,R,,3,2,1,21,1,1,,
,,,,,,,,,,1,ear_test_motor_2,2023-09-22_11h15.19.631,Motor_Task,2023.2.2,MacIntel,58.82352941,95.126,95.692,1,1,0.565,,,,,,,6,I,,1,2,2,22,5,1,,
,,,,,,,,,,1,ear_test_motor_2,2023-09-22_11h15.19.631,Motor_Task,2023.2.2,MacIntel,58.82352941,95.692,96.225,2,1,0.531,,,,,,,3,M,,2,2,3,23,2,1,,
,,,,,,,,,,1,ear_test_motor_2,2023-09-22_11h15.19.631,Motor_Task,2023.2.2,MacIntel,58.82352941,96.226,96.775,4,1,0.541,,,,,,,9,L,,4,2,4,24,8,1,,
,,,,,,,,,,1,ear_test_motor_2,2023-09-22_11h15.19.631,Motor_Task,2023.2.2,MacIntel,58.82352941,96.776,97.225,1,1,0.446,,,,,,,5,I,,1,2,5,25,4,1,,
,,,,,,,,,,1,ear_test_motor_2,2023-09-22_11h15.19.631,Motor_Task,2023.2.2,MacIntel,58.82352941,97.225,97.744,3,1,0.515,,,,,,,7,R,,3,2,6,26,6,1,,
,,,,,,,,,,1,ear_test_motor_2,2023-09-22_11h15.19.631,Motor_Task,2023.2.2,MacIntel,58.82352941,97.745,98.242,1,1,0.491,,,,,,,10,I,,1,2,7,27,9,1,,
,,,,,,,,,,1,ear_test_motor_2,2023-09-22_11h15.19.631,Motor_Task,2023.2.2,MacIntel,58.82352941,98.242,98.777,3,1,0.53,,,,,,,4,R,,3,2,8,28,3,1,,
,,,,,,,,,,1,ear_test_motor_2,2023-09-22_11h15.19.631,Motor_Task,2023.2.2,MacIntel,58.82352941,98.778,99.228,2,1,0.445,,,,,,,8,M,,2,2,9,29,7,1,,
,,,,,,,,,,1,ear_test_motor_2,2023-09-22_11h15.19.631,Motor_Task,2023.2.2,MacIntel,58.82352941,99.229,99.776,3,1,0.543,,,,,,,7,R,,3,3,0,30,6,1,,
,,,,,,,,,,1,ear_test_motor_2,2023-09-22_11h15.19.631,Motor_Task,2023.2.2,MacIntel,58.82352941,99.776,100.243,1,1,0.462,,,,,,,10,I,,1,3,1,31,9,1,,
,,,,,,,,,,1,ear_test_motor_2,2023-09-22_11h15.19.631,Motor_Task,2023.2.2,MacIntel,58.82352941,100.243,100.793,4,1,0.546,,,,,,,9,L,,4,3,2,32,8,1,,
,,,,,,,,,,1,ear_test_motor_2,2023-09-22_11h15.19.631,Motor_Task,2023.2.2,MacIntel,58.82352941,100.793,101.292,1,1,0.496,,,,,,,5,I,,1,3,3,33,4,1,,
,,,,,,,,,,1,ear_test_motor_2,2023-09-22_11h15.19.631,Motor_Task,2023.2.2,MacIntel,58.82352941,101.292,101.808,3,1,0.515,,,,,,,2,R,,3,3,4,34,1,1,,
,,,,,,,,,,1,ear_test_motor_2,2023-09-22_11h15.19.631,Motor_Task,2023.2.2,MacIntel,58.82352941,101.809,102.311,2,1,0.497,,,,,,,3,M,,2,3,5,35,2,1,,
,,,,,,,,,,1,ear_test_motor_2,2023-09-22_11h15.19.631,Motor_Task,2023.2.2,MacIntel,58.82352941,102.312,102.792,3,1,0.477,,,,,,,4,R,,3,3,6,36,3,1,,
,,,,,,,,,,1,ear_test_motor_2,2023-09-22_11h15.19.631,Motor_Task,2023.2.2,MacIntel,58.82352941,102.792,103.309,2,1,0.515,,,,,,,8,M,,2,3,7,37,7,1,,
,,,,,,,,,,1,ear_test_motor_2,2023-09-22_11h15.19.631,Motor_Task,2023.2.2,MacIntel,58.82352941,103.309,103.86,2,1,0.546,,,,,,,1,M,,2,3,8,38,0,1,,
,,,,,,,,,,1,ear_test_motor_2,2023-09-22_11h15.19.631,Motor_Task,2023.2.2,MacIntel,58.82352941,103.86,104.411,1,1,0.546,,,,,,,6,I,,1,3,9,39,5,1,,
,,,,,,,,,,1,ear_test_motor_2,2023-09-22_11h15.19.631,Motor_Task,2023.2.2,MacIntel,58.82352941,104.411,104.926,2,1,0.512,,,,,,,3,M,,2,4,0,40,2,1,,
,,,,,,,,,,1,ear_test_motor_2,2023-09-22_11h15.19.631,Motor_Task,2023.2.2,MacIntel,58.82352941,104.926,105.395,3,1,0.465,,,,,,,7,R,,3,4,1,41,6,1,,
,,,,,,,,,,1,ear_test_motor_2,2023-09-22_11h15.19.631,Motor_Task,2023.2.2,MacIntel,58.82352941,105.396,105.962,2,1,0.561,,,,,,,1,M,,2,4,2,42,0,1,,
,,,,,,,,,,1,ear_test_motor_2,2023-09-22_11h15.19.631,Motor_Task,2023.2.2,MacIntel,58.82352941,105.962,106.528,1,1,0.562,,,,,,,10,I,,1,4,3,43,9,1,,
,,,,,,,,,,1,ear_test_motor_2,2023-09-22_11h15.19.631,Motor_Task,2023.2.2,MacIntel,58.82352941,106.529,106.995,3,1,0.463,,,,,,,4,R,,3,4,4,44,3,1,,
,,,,,,,,,,1,ear_test_motor_2,2023-09-22_11h15.19.631,Motor_Task,2023.2.2,MacIntel,58.82352941,106.996,107.526,4,1,0.528,,,,,,,9,L,,4,4,5,45,8,1,,
,,,,,,,,,,1,ear_test_motor_2,2023-09-22_11h15.19.631,Motor_Task,2023.2.2,MacIntel,58.82352941,107.526,107.992,1,1,0.464,,,,,,,6,I,,1,4,6,46,5,1,,
,,,,,,,,,,1,ear_test_motor_2,2023-09-22_11h15.19.631,Motor_Task,2023.2.2,MacIntel,58.82352941,107.992,108.476,3,1,0.482,,,,,,,2,R,,3,4,7,47,1,1,,
,,,,,,,,,,1,ear_test_motor_2,2023-09-22_11h15.19.631,Motor_Task,2023.2.2,MacIntel,58.82352941,108.476,108.992,1,1,0.513,,,,,,,5,I,,1,4,8,48,4,1,,
,,,,,,,,,,1,ear_test_motor_2,2023-09-22_11h15.19.631,Motor_Task,2023.2.2,MacIntel,58.82352941,108.993,109.528,2,1,0.53,,,,,,,8,M,,2,4,9,49,7,1,,
,,,,,,,,,,1,ear_test_motor_2,2023-09-22_11h15.19.631,Motor_Task,2023.2.2,MacIntel,58.82352941,,,,,,,,,,,,,,,,,,,,,109.529,113.526