Trigger.started,Trigger.stopped,key_resp_4.keys,key_resp_4.rt,key_resp_4.duration,mouse.x,mouse.y,mouse.leftButton,mouse.midButton,mouse.rightButton,Session,Subject,date,expName,psychopyVersion,OS,frameRate,complex_block.started,complex_block.stopped,key_resp.keys,key_resp.corr,key_resp.rt,key_resp.duration,complex_block_loop.thisRepN,complex_block_loop.thisTrialN,complex_block_loop.thisN,complex_block_loop.thisIndex,complex_block_loop.ran,trial,finger,markerPos,correctResp,new_block_loop.thisRepN,new_block_loop.thisTrialN,new_block_loop.thisN,new_block_loop.thisIndex,new_block_loop.ran,endBuffer.started,endBuffer.stopped
0,10.865,1,10.792,,0.289285714,-0.1875,0,0,0,1,Emily,2023-09-27_15h43.37.069,Motor_Task,2023.2.2,MacIntel,31.25,,,,,,,,,,,,,,,,,,,,,,
,,,,,,,,,,1,Emily,2023-09-27_15h43.37.069,Motor_Task,2023.2.2,MacIntel,31.25,10.893,11.531,2,1,0.619,,0,0,0,0,1,1,M,,2,,,,,,,
,,,,,,,,,,1,Emily,2023-09-27_15h43.37.069,Motor_Task,2023.2.2,MacIntel,31.25,11.532,12.064,3,1,0.51,,0,1,1,1,1,2,R,,3,,,,,,,
,,,,,,,,,,1,Emily,2023-09-27_15h43.37.069,Motor_Task,2023.2.2,MacIntel,31.25,12.064,12.632,2,1,0.543,,0,2,2,2,1,3,M,,2,,,,,,,
,,,,,,,,,,1,Emily,2023-09-27_15h43.37.069,Motor_Task,2023.2.2,MacIntel,31.25,12.632,13.132,3,1,0.476,,0,3,3,3,1,4,R,,3,,,,,,,
,,,,,,,,,,1,Emily,2023-09-27_15h43.37.069,Motor_Task,2023.2.2,MacIntel,31.25,13.132,13.732,1,1,0.586,,0,4,4,4,1,5,I,,1,,,,,,,
,,,,,,,,,,1,Emily,2023-09-27_15h43.37.069,Motor_Task,2023.2.2,MacIntel,31.25,13.732,14.365,1,1,0.609,,0,5,5,5,1,6,I,,1,,,,,,,
,,,,,,,,,,1,Emily,2023-09-27_15h43.37.069,Motor_Task,2023.2.2,MacIntel,31.25,14.365,14.864,2,0,0.476,,0,6,6,6,1,7,R,,3,,,,,,,
,,,,,,,,,,1,Emily,2023-09-27_15h43.37.069,Motor_Task,2023.2.2,MacIntel,31.25,14.864,14.897,3,0,0.01,,0,7,7,7,1,8,M,,2,,,,,,,
,,,,,,,,,,1,Emily,2023-09-27_15h43.37.069,Motor_Task,2023.2.2,MacIntel,31.25,14.898,15.464,4,1,0.543,,0,8,8,8,1,9,L,,4,,,,,,,
,,,,,,,,,,1,Emily,2023-09-27_15h43.37.069,Motor_Task,2023.2.2,MacIntel,31.25,15.464,16.031,1,1,0.542,,0,9,9,9,1,10,I,,1,,,,,,,
,,,,,,,,,,1,Emily,2023-09-27_15h43.37.069,Motor_Task,2023.2.2,MacIntel,31.25,16.031,16.531,2,1,0.484,,1,0,10,0,1,1,M,,2,,,,,,,
,,,,,,,,,,1,Emily,2023-09-27_15h43.37.069,Motor_Task,2023.2.2,MacIntel,31.25,16.531,16.998,3,1,0.455,,1,1,11,1,1,2,R,,3,,,,,,,
,,,,,,,,,,1,Emily,2023-09-27_15h43.37.069,Motor_Task,2023.2.2,MacIntel,31.25,16.998,17.531,2,1,0.519,,1,2,12,2,1,3,M,,2,,,,,,,
,,,,,,,,,,1,Emily,2023-09-27_15h43.37.069,Motor_Task,2023.2.2,MacIntel,31.25,17.531,18.064,2,0,0.522,,1,3,13,3,1,4,R,,3,,,,,,,
,,,,,,,,,,1,Emily,2023-09-27_15h43.37.069,Motor_Task,2023.2.2,MacIntel,31.25,18.064,18.231,3,0,0.158,,1,4,14,4,1,5,I,,1,,,,,,,
,,,,,,,,,,1,Emily,2023-09-27_15h43.37.069,Motor_Task,2023.2.2,MacIntel,31.25,18.231,18.832,1,1,0.577,,1,5,15,5,1,6,I,,1,,,,,,,
,,,,,,,,,,1,Emily,2023-09-27_15h43.37.069,Motor_Task,2023.2.2,MacIntel,31.25,18.832,19.331,3,1,0.477,,1,6,16,6,1,7,R,,3,,,,,,,
,,,,,,,,,,1,Emily,2023-09-27_15h43.37.069,Motor_Task,2023.2.2,MacIntel,31.25,19.331,19.865,2,1,0.509,,1,7,17,7,1,8,M,,2,,,,,,,
,,,,,,,,,,1,Emily,2023-09-27_15h43.37.069,Motor_Task,2023.2.2,MacIntel,31.25,19.865,20.431,4,1,0.543,,1,8,18,8,1,9,L,,4,,,,,,,
,,,,,,,,,,1,Emily,2023-09-27_15h43.37.069,Motor_Task,2023.2.2,MacIntel,31.25,20.431,20.965,1,1,0.519,,1,9,19,9,1,10,I,,1,,,,,,,
,,,,,,,,,,1,Emily,2023-09-27_15h43.37.069,Motor_Task,2023.2.2,MacIntel,31.25,20.965,21.466,2,1,0.48,,2,0,20,0,1,1,M,,2,,,,,,,
,,,,,,,,,,1,Emily,2023-09-27_15h43.37.069,Motor_Task,2023.2.2,MacIntel,31.25,21.466,21.964,3,1,0.475,,2,1,21,1,1,2,R,,3,,,,,,,
,,,,,,,,,,1,Emily,2023-09-27_15h43.37.069,Motor_Task,2023.2.2,MacIntel,31.25,21.965,22.464,2,1,0.481,,2,2,22,2,1,3,M,,2,,,,,,,
,,,,,,,,,,1,Emily,2023-09-27_15h43.37.069,Motor_Task,2023.2.2,MacIntel,31.25,22.464,22.964,3,1,0.476,,2,3,23,3,1,4,R,,3,,,,,,,
,,,,,,,,,,1,Emily,2023-09-27_15h43.37.069,Motor_Task,2023.2.2,MacIntel,31.25,22.964,23.531,1,1,0.544,,2,4,24,4,1,5,I,,1,,,,,,,
,,,,,,,,,,1,Emily,2023-09-27_15h43.37.069,Motor_Task,2023.2.2,MacIntel,31.25,23.531,24.098,1,1,0.556,,2,5,25,5,1,6,I,,1,,,,,,,
,,,,,,,,,,1,Emily,2023-09-27_15h43.37.069,Motor_Task,2023.2.2,MacIntel,31.25,24.098,24.631,3,1,0.51,,2,6,26,6,1,7,R,,3,,,,,,,
,,,,,,,,,,1,Emily,2023-09-27_15h43.37.069,Motor_Task,2023.2.2,MacIntel,31.25,24.631,25.098,2,1,0.449,,2,7,27,7,1,8,M,,2,,,,,,,
,,,,,,,,,,1,Emily,2023-09-27_15h43.37.069,Motor_Task,2023.2.2,MacIntel,31.25,25.098,25.598,4,1,0.487,,2,8,28,8,1,9,L,,4,,,,,,,
,,,,,,,,,,1,Emily,2023-09-27_15h43.37.069,Motor_Task,2023.2.2,MacIntel,31.25,25.598,26.131,1,1,0.52,,2,9,29,9,1,10,I,,1,,,,,,,
,,,,,,,,,,1,Emily,2023-09-27_15h43.37.069,Motor_Task,2023.2.2,MacIntel,31.25,26.131,26.665,2,1,0.521,,3,0,30,0,1,1,M,,2,,,,,,,
,,,,,,,,,,1,Emily,2023-09-27_15h43.37.069,Motor_Task,2023.2.2,MacIntel,31.25,26.665,27.131,3,1,0.443,,3,1,31,1,1,2,R,,3,,,,,,,
,,,,,,,,,,1,Emily,2023-09-27_15h43.37.069,Motor_Task,2023.2.2,MacIntel,31.25,27.131,27.598,2,1,0.444,,3,2,32,2,1,3,M,,2,,,,,,,
,,,,,,,,,,1,Emily,2023-09-27_15h43.37.069,Motor_Task,2023.2.2,MacIntel,31.25,27.598,28.064,3,1,0.457,,3,3,33,3,1,4,R,,3,,,,,,,
,,,,,,,,,,1,Emily,2023-09-27_15h43.37.069,Motor_Task,2023.2.2,MacIntel,31.25,28.064,28.597,1,1,0.511,,3,4,34,4,1,5,I,,1,,,,,,,
,,,,,,,,,,1,Emily,2023-09-27_15h43.37.069,Motor_Task,2023.2.2,MacIntel,31.25,28.598,29.098,1,1,0.48,,3,5,35,5,1,6,I,,1,,,,,,,
,,,,,,,,,,1,Emily,2023-09-27_15h43.37.069,Motor_Task,2023.2.2,MacIntel,31.25,29.098,29.631,3,1,0.51,,3,6,36,6,1,7,R,,3,,,,,,,
,,,,,,,,,,1,Emily,2023-09-27_15h43.37.069,Motor_Task,2023.2.2,MacIntel,31.25,29.632,29.664,2,1,0.01,,3,7,37,7,1,8,M,,2,,,,,,,
,,,,,,,,,,1,Emily,2023-09-27_15h43.37.069,Motor_Task,2023.2.2,MacIntel,31.25,29.664,30.231,4,1,0.552,,3,8,38,8,1,9,L,,4,,,,,,,
,,,,,,,,,,1,Emily,2023-09-27_15h43.37.069,Motor_Task,2023.2.2,MacIntel,31.25,30.231,30.831,1,1,0.58,,3,9,39,9,1,10,I,,1,,,,,,,
,,,,,,,,,,1,Emily,2023-09-27_15h43.37.069,Motor_Task,2023.2.2,MacIntel,31.25,30.832,31.431,2,1,0.576,,4,0,40,0,1,1,M,,2,,,,,,,
,,,,,,,,,,1,Emily,2023-09-27_15h43.37.069,Motor_Task,2023.2.2,MacIntel,31.25,31.431,31.964,3,1,0.51,,4,1,41,1,1,2,R,,3,,,,,,,
,,,,,,,,,,1,Emily,2023-09-27_15h43.37.069,Motor_Task,2023.2.2,MacIntel,31.25,31.964,32.298,2,1,0.315,,4,2,42,2,1,3,M,,2,,,,,,,
,,,,,,,,,,1,Emily,2023-09-27_15h43.37.069,Motor_Task,2023.2.2,MacIntel,31.25,32.298,32.831,3,1,0.509,,4,3,43,3,1,4,R,,3,,,,,,,
,,,,,,,,,,1,Emily,2023-09-27_15h43.37.069,Motor_Task,2023.2.2,MacIntel,31.25,32.831,33.297,1,1,0.443,,4,4,44,4,1,5,I,,1,,,,,,,
,,,,,,,,,,1,Emily,2023-09-27_15h43.37.069,Motor_Task,2023.2.2,MacIntel,31.25,33.298,33.697,1,1,0.377,,4,5,45,5,1,6,I,,1,,,,,,,
,,,,,,,,,,1,Emily,2023-09-27_15h43.37.069,Motor_Task,2023.2.2,MacIntel,31.25,33.697,34.298,2,0,0.577,0.013,4,6,46,6,1,7,R,,3,,,,,,,
,,,,,,,,,,1,Emily,2023-09-27_15h43.37.069,Motor_Task,2023.2.2,MacIntel,31.25,34.298,34.364,3,0,0.043,,4,7,47,7,1,8,M,,2,,,,,,,
,,,,,,,,,,1,Emily,2023-09-27_15h43.37.069,Motor_Task,2023.2.2,MacIntel,31.25,34.364,34.931,4,1,0.544,,4,8,48,8,1,9,L,,4,,,,,,,
,,,,,,,,,,1,Emily,2023-09-27_15h43.37.069,Motor_Task,2023.2.2,MacIntel,31.25,34.931,35.565,1,1,0.61,,4,9,49,9,1,10,I,,1,,,,,,,
,,,,,,,,,,1,Emily,2023-09-27_15h43.37.069,Motor_Task,2023.2.2,MacIntel,31.25,35.565,36.064,2,1,0.487,,5,0,50,0,1,1,M,,2,,,,,,,
,,,,,,,,,,1,Emily,2023-09-27_15h43.37.069,Motor_Task,2023.2.2,MacIntel,31.25,36.065,36.498,3,1,0.424,,5,1,51,1,1,2,R,,3,,,,,,,
,,,,,,,,,,1,Emily,2023-09-27_15h43.37.069,Motor_Task,2023.2.2,MacIntel,31.25,36.498,37.065,2,1,0.542,,5,2,52,2,1,3,M,,2,,,,,,,
,,,,,,,,,,1,Emily,2023-09-27_15h43.37.069,Motor_Task,2023.2.2,MacIntel,31.25,37.065,37.531,3,1,0.443,,5,3,53,3,1,4,R,,3,,,,,,,
,,,,,,,,,,1,Emily,2023-09-27_15h43.37.069,Motor_Task,2023.2.2,MacIntel,31.25,37.532,37.998,1,1,0.442,,5,4,54,4,1,5,I,,1,,,,,,,
,,,,,,,,,,1,Emily,2023-09-27_15h43.37.069,Motor_Task,2023.2.2,MacIntel,31.25,37.998,38.431,1,1,0.416,,5,5,55,5,1,6,I,,1,,,,,,,
,,,,,,,,,,1,Emily,2023-09-27_15h43.37.069,Motor_Task,2023.2.2,MacIntel,31.25,38.431,38.897,3,1,0.443,,5,6,56,6,1,7,R,,3,,,,,,,
,,,,,,,,,,1,Emily,2023-09-27_15h43.37.069,Motor_Task,2023.2.2,MacIntel,31.25,38.897,39.232,4,0,0.316,,5,7,57,7,1,8,M,,2,,,,,,,
,,,,,,,,,,1,Emily,2023-09-27_15h43.37.069,Motor_Task,2023.2.2,MacIntel,31.25,39.232,39.698,2,0,0.447,,5,8,58,8,1,9,L,,4,,,,,,,
,,,,,,,,,,1,Emily,2023-09-27_15h43.37.069,Motor_Task,2023.2.2,MacIntel,31.25,39.699,40.031,4,0,0.315,,5,9,59,9,1,10,I,,1,,,,,,,
,,,,,,,,,,1,Emily,2023-09-27_15h43.37.069,Motor_Task,2023.2.2,MacIntel,31.25,40.031,40.731,2,1,0.682,,6,0,60,0,1,1,M,,2,,,,,,,
,,,,,,,,,,1,Emily,2023-09-27_15h43.37.069,Motor_Task,2023.2.2,MacIntel,31.25,40.731,41.264,3,1,0.516,,6,1,61,1,1,2,R,,3,,,,,,,
,,,,,,,,,,1,Emily,2023-09-27_15h43.37.069,Motor_Task,2023.2.2,MacIntel,31.25,41.264,41.732,2,1,0.449,,6,2,62,2,1,3,M,,2,,,,,,,
,,,,,,,,,,1,Emily,2023-09-27_15h43.37.069,Motor_Task,2023.2.2,MacIntel,31.25,41.732,42.231,3,1,0.482,,6,3,63,3,1,4,R,,3,,,,,,,
,,,,,,,,,,1,Emily,2023-09-27_15h43.37.069,Motor_Task,2023.2.2,MacIntel,31.25,42.231,42.765,1,1,0.515,,6,4,64,4,1,5,I,,1,,,,,,,
,,,,,,,,,,1,Emily,2023-09-27_15h43.37.069,Motor_Task,2023.2.2,MacIntel,31.25,42.765,43.165,1,1,0.381,,6,5,65,5,1,6,I,,1,,,,,,,
,,,,,,,,,,1,Emily,2023-09-27_15h43.37.069,Motor_Task,2023.2.2,MacIntel,31.25,43.165,43.665,4,0,0.482,,6,6,66,6,1,7,R,,3,,,,,,,
,,,,,,,,,,1,Emily,2023-09-27_15h43.37.069,Motor_Task,2023.2.2,MacIntel,31.25,43.665,44.332,2,1,0.648,,6,7,67,7,1,8,M,,2,,,,,,,
,,,,,,,,,,1,Emily,2023-09-27_15h43.37.069,Motor_Task,2023.2.2,MacIntel,31.25,44.332,44.731,4,1,0.382,,6,8,68,8,1,9,L,,4,,,,,,,
,,,,,,,,,,1,Emily,2023-09-27_15h43.37.069,Motor_Task,2023.2.2,MacIntel,31.25,44.731,45.298,1,1,0.549,,6,9,69,9,1,10,I,,1,,,,,,,
,,,,,,,,,,1,Emily,2023-09-27_15h43.37.069,Motor_Task,2023.2.2,MacIntel,31.25,45.299,45.865,2,1,0.547,,7,0,70,0,1,1,M,,2,,,,,,,
,,,,,,,,,,1,Emily,2023-09-27_15h43.37.069,Motor_Task,2023.2.2,MacIntel,31.25,45.865,46.364,3,1,0.481,,7,1,71,1,1,2,R,,3,,,,,,,
,,,,,,,,,,1,Emily,2023-09-27_15h43.37.069,Motor_Task,2023.2.2,MacIntel,31.25,46.364,46.832,2,1,0.448,,7,2,72,2,1,3,M,,2,,,,,,,
,,,,,,,,,,1,Emily,2023-09-27_15h43.37.069,Motor_Task,2023.2.2,MacIntel,31.25,46.832,47.231,3,1,0.381,,7,3,73,3,1,4,R,,3,,,,,,,
,,,,,,,,,,1,Emily,2023-09-27_15h43.37.069,Motor_Task,2023.2.2,MacIntel,31.25,47.231,47.631,1,1,0.382,,7,4,74,4,1,5,I,,1,,,,,,,
,,,,,,,,,,1,Emily,2023-09-27_15h43.37.069,Motor_Task,2023.2.2,MacIntel,31.25,47.631,48.031,1,1,0.382,,7,5,75,5,1,6,I,,1,,,,,,,
,,,,,,,,,,1,Emily,2023-09-27_15h43.37.069,Motor_Task,2023.2.2,MacIntel,31.25,48.031,48.532,3,1,0.482,,7,6,76,6,1,7,R,,3,,,,,,,
,,,,,,,,,,1,Emily,2023-09-27_15h43.37.069,Motor_Task,2023.2.2,MacIntel,31.25,48.532,49.065,2,1,0.514,,7,7,77,7,1,8,M,,2,,,,,,,
,,,,,,,,,,1,Emily,2023-09-27_15h43.37.069,Motor_Task,2023.2.2,MacIntel,31.25,49.065,49.432,4,1,0.348,,7,8,78,8,1,9,L,,4,,,,,,,
,,,,,,,,,,1,Emily,2023-09-27_15h43.37.069,Motor_Task,2023.2.2,MacIntel,31.25,49.432,49.864,1,1,0.415,,7,9,79,9,1,10,I,,1,,,,,,,
,,,,,,,,,,1,Emily,2023-09-27_15h43.37.069,Motor_Task,2023.2.2,MacIntel,31.25,49.865,50.365,3,0,0.482,,8,0,80,0,1,1,M,,2,,,,,,,
,,,,,,,,,,1,Emily,2023-09-27_15h43.37.069,Motor_Task,2023.2.2,MacIntel,31.25,50.365,50.898,3,1,0.514,,8,1,81,1,1,2,R,,3,,,,,,,
,,,,,,,,,,1,Emily,2023-09-27_15h43.37.069,Motor_Task,2023.2.2,MacIntel,31.25,50.898,51.265,2,1,0.35,,8,2,82,2,1,3,M,,2,,,,,,,
,,,,,,,,,,1,Emily,2023-09-27_15h43.37.069,Motor_Task,2023.2.2,MacIntel,31.25,51.265,51.764,3,1,0.482,,8,3,83,3,1,4,R,,3,,,,,,,
,,,,,,,,,,1,Emily,2023-09-27_15h43.37.069,Motor_Task,2023.2.2,MacIntel,31.25,51.764,52.265,1,1,0.482,,8,4,84,4,1,5,I,,1,,,,,,,
,,,,,,,,,,1,Emily,2023-09-27_15h43.37.069,Motor_Task,2023.2.2,MacIntel,31.25,52.265,52.798,1,1,0.515,,8,5,85,5,1,6,I,,1,,,,,,,
,,,,,,,,,,1,Emily,2023-09-27_15h43.37.069,Motor_Task,2023.2.2,MacIntel,31.25,52.798,53.298,3,1,0.481,,8,6,86,6,1,7,R,,3,,,,,,,
,,,,,,,,,,1,Emily,2023-09-27_15h43.37.069,Motor_Task,2023.2.2,MacIntel,31.25,53.298,53.831,2,1,0.515,,8,7,87,7,1,8,M,,2,,,,,,,
,,,,,,,,,,1,Emily,2023-09-27_15h43.37.069,Motor_Task,2023.2.2,MacIntel,31.25,53.832,54.231,4,1,0.381,,8,8,88,8,1,9,L,,4,,,,,,,
,,,,,,,,,,1,Emily,2023-09-27_15h43.37.069,Motor_Task,2023.2.2,MacIntel,31.25,54.231,54.698,1,1,0.449,,8,9,89,9,1,10,I,,1,,,,,,,
,,,,,,,,,,1,Emily,2023-09-27_15h43.37.069,Motor_Task,2023.2.2,MacIntel,31.25,54.698,55.198,2,1,0.482,,9,0,90,0,1,1,M,,2,,,,,,,
,,,,,,,,,,1,Emily,2023-09-27_15h43.37.069,Motor_Task,2023.2.2,MacIntel,31.25,55.198,55.532,3,1,0.315,,9,1,91,1,1,2,R,,3,,,,,,,
,,,,,,,,,,1,Emily,2023-09-27_15h43.37.069,Motor_Task,2023.2.2,MacIntel,31.25,55.532,55.931,2,1,0.382,,9,2,92,2,1,3,M,,2,,,,,,,
,,,,,,,,,,1,Emily,2023-09-27_15h43.37.069,Motor_Task,2023.2.2,MacIntel,31.25,55.931,56.398,3,1,0.449,,9,3,93,3,1,4,R,,3,,,,,,,
,,,,,,,,,,1,Emily,2023-09-27_15h43.37.069,Motor_Task,2023.2.2,MacIntel,31.25,56.398,56.797,1,1,0.377,,9,4,94,4,1,5,I,,1,,,,,,,
,,,,,,,,,,1,Emily,2023-09-27_15h43.37.069,Motor_Task,2023.2.2,MacIntel,31.25,56.797,57.164,1,1,0.35,,9,5,95,5,1,6,I,,1,,,,,,,
,,,,,,,,,,1,Emily,2023-09-27_15h43.37.069,Motor_Task,2023.2.2,MacIntel,31.25,57.165,57.631,3,1,0.443,,9,6,96,6,1,7,R,,3,,,,,,,
,,,,,,,,,,1,Emily,2023-09-27_15h43.37.069,Motor_Task,2023.2.2,MacIntel,31.25,57.631,58.031,2,1,0.381,,9,7,97,7,1,8,M,,2,,,,,,,
,,,,,,,,,,1,Emily,2023-09-27_15h43.37.069,Motor_Task,2023.2.2,MacIntel,31.25,58.031,58.432,4,1,0.376,,9,8,98,8,1,9,L,,4,,,,,,,
,,,,,,,,,,1,Emily,2023-09-27_15h43.37.069,Motor_Task,2023.2.2,MacIntel,31.25,58.432,58.832,1,1,0.376,,9,9,99,9,1,10,I,,1,,,,,,,
,,,,,,,,,,1,Emily,2023-09-27_15h43.37.069,Motor_Task,2023.2.2,MacIntel,31.25,58.832,59.331,2,1,0.478,,10,0,100,0,1,1,M,,2,,,,,,,
,,,,,,,,,,1,Emily,2023-09-27_15h43.37.069,Motor_Task,2023.2.2,MacIntel,31.25,59.331,59.631,3,1,0.278,,10,1,101,1,1,2,R,,3,,,,,,,
,,,,,,,,,,1,Emily,2023-09-27_15h43.37.069,Motor_Task,2023.2.2,MacIntel,31.25,59.631,60.098,2,1,0.444,,10,2,102,2,1,3,M,,2,,,,,,,
,,,,,,,,,,1,Emily,2023-09-27_15h43.37.069,Motor_Task,2023.2.2,MacIntel,31.25,60.098,60.464,3,1,0.343,,10,3,103,3,1,4,R,,3,,,,,,,
,,,,,,,,,,1,Emily,2023-09-27_15h43.37.069,Motor_Task,2023.2.2,MacIntel,31.25,60.464,60.831,1,1,0.345,,10,4,104,4,1,5,I,,1,,,,,,,
,,,,,,,,,,1,Emily,2023-09-27_15h43.37.069,Motor_Task,2023.2.2,MacIntel,31.25,60.831,61.231,1,1,0.378,,10,5,105,5,1,6,I,,1,,,,,,,
,,,,,,,,,,1,Emily,2023-09-27_15h43.37.069,Motor_Task,2023.2.2,MacIntel,31.25,61.231,61.731,3,1,0.477,,10,6,106,6,1,7,R,,3,,,,,,,
,,,,,,,,,,1,Emily,2023-09-27_15h43.37.069,Motor_Task,2023.2.2,MacIntel,31.25,61.731,62.164,2,1,0.421,,10,7,107,7,1,8,M,,2,,,,,,,
,,,,,,,,,,1,Emily,2023-09-27_15h43.37.069,Motor_Task,2023.2.2,MacIntel,31.25,62.164,62.698,4,1,0.511,,10,8,108,8,1,9,L,,4,,,,,,,
,,,,,,,,,,1,Emily,2023-09-27_15h43.37.069,Motor_Task,2023.2.2,MacIntel,31.25,62.699,62.998,1,1,0.276,,10,9,109,9,1,10,I,,1,,,,,,,
,,,,,,,,,,1,Emily,2023-09-27_15h43.37.069,Motor_Task,2023.2.2,MacIntel,31.25,62.998,63.464,2,1,0.444,,11,0,110,0,1,1,M,,2,,,,,,,
,,,,,,,,,,1,Emily,2023-09-27_15h43.37.069,Motor_Task,2023.2.2,MacIntel,31.25,63.465,63.765,3,1,0.283,,11,1,111,1,1,2,R,,3,,,,,,,
,,,,,,,,,,1,Emily,2023-09-27_15h43.37.069,Motor_Task,2023.2.2,MacIntel,31.25,63.765,64.198,2,1,0.421,,11,2,112,2,1,3,M,,2,,,,,,,
,,,,,,,,,,1,Emily,2023-09-27_15h43.37.069,Motor_Task,2023.2.2,MacIntel,31.25,64.198,64.664,3,1,0.444,,11,3,113,3,1,4,R,,3,,,,,,,
,,,,,,,,,,1,Emily,2023-09-27_15h43.37.069,Motor_Task,2023.2.2,MacIntel,31.25,64.665,64.998,1,1,0.32,,11,4,114,4,1,5,I,,1,,,,,,,
,,,,,,,,,,1,Emily,2023-09-27_15h43.37.069,Motor_Task,2023.2.2,MacIntel,31.25,64.999,65.399,1,1,0.376,,11,5,115,5,1,6,I,,1,,,,,,,
,,,,,,,,,,1,Emily,2023-09-27_15h43.37.069,Motor_Task,2023.2.2,MacIntel,31.25,65.399,65.598,3,1,0.179,,11,6,116,6,1,7,R,,3,,,,,,,
,,,,,,,,,,1,Emily,2023-09-27_15h43.37.069,Motor_Task,2023.2.2,MacIntel,31.25,65.598,66.031,2,1,0.425,,11,7,117,7,1,8,M,,2,,,,,,,
,,,,,,,,,,1,Emily,2023-09-27_15h43.37.069,Motor_Task,2023.2.2,MacIntel,31.25,66.032,66.397,4,1,0.351,,11,8,118,8,1,9,L,,4,,,,,,,
,,,,,,,,,,1,Emily,2023-09-27_15h43.37.069,Motor_Task,2023.2.2,MacIntel,31.25,66.398,66.797,1,1,0.388,,11,9,119,9,1,10,I,,1,,,,,,,
,,,,,,,,,,1,Emily,2023-09-27_15h43.37.069,Motor_Task,2023.2.2,MacIntel,31.25,66.798,67.231,2,1,0.411,,12,0,120,0,1,1,M,,2,,,,,,,
,,,,,,,,,,1,Emily,2023-09-27_15h43.37.069,Motor_Task,2023.2.2,MacIntel,31.25,67.231,67.498,3,1,0.25,,12,1,121,1,1,2,R,,3,,,,,,,
,,,,,,,,,,1,Emily,2023-09-27_15h43.37.069,Motor_Task,2023.2.2,MacIntel,31.25,67.498,68.065,2,1,0.559,,12,2,122,2,1,3,M,,2,,,,,,,
,,,,,,,,,,1,Emily,2023-09-27_15h43.37.069,Motor_Task,2023.2.2,MacIntel,31.25,68.065,68.364,3,1,0.279,,12,3,123,3,1,4,R,,3,,,,,,,
,,,,,,,,,,1,Emily,2023-09-27_15h43.37.069,Motor_Task,2023.2.2,MacIntel,31.25,68.365,68.698,1,1,0.318,,12,4,124,4,1,5,I,,1,,,,,,,
,,,,,,,,,,1,Emily,2023-09-27_15h43.37.069,Motor_Task,2023.2.2,MacIntel,31.25,68.699,69.064,1,1,0.343,,12,5,125,5,1,6,I,,1,,,,,,,
,,,,,,,,,,1,Emily,2023-09-27_15h43.37.069,Motor_Task,2023.2.2,MacIntel,31.25,69.065,69.531,3,1,0.443,,12,6,126,6,1,7,R,,3,,,,,,,
,,,,,,,,,,1,Emily,2023-09-27_15h43.37.069,Motor_Task,2023.2.2,MacIntel,31.25,69.532,69.898,2,1,0.344,,12,7,127,7,1,8,M,,2,,,,,,,
,,,,,,,,,,1,Emily,2023-09-27_15h43.37.069,Motor_Task,2023.2.2,MacIntel,31.25,69.898,70.198,4,1,0.287,,12,8,128,8,1,9,L,,4,,,,,,,
,,,,,,,,,,1,Emily,2023-09-27_15h43.37.069,Motor_Task,2023.2.2,MacIntel,31.25,70.199,70.565,1,1,0.343,,12,9,129,9,1,10,I,,1,,,,,,,
,,,,,,,,,,1,Emily,2023-09-27_15h43.37.069,Motor_Task,2023.2.2,MacIntel,31.25,70.565,70.865,2,1,0.285,,13,0,130,0,1,1,M,,2,,,,,,,
,,,,,,,,,,1,Emily,2023-09-27_15h43.37.069,Motor_Task,2023.2.2,MacIntel,31.25,70.865,71.164,3,1,0.291,,13,1,131,1,1,2,R,,3,,,,,,,
,,,,,,,,,,1,Emily,2023-09-27_15h43.37.069,Motor_Task,2023.2.2,MacIntel,31.25,71.164,71.531,2,1,0.351,,13,2,132,2,1,3,M,,2,,,,,,,
,,,,,,,,,,1,Emily,2023-09-27_15h43.37.069,Motor_Task,2023.2.2,MacIntel,31.25,71.531,71.865,3,1,0.315,,13,3,133,3,1,4,R,,3,,,,,,,
,,,,,,,,,,1,Emily,2023-09-27_15h43.37.069,Motor_Task,2023.2.2,MacIntel,31.25,71.865,72.197,1,1,0.31,,13,4,134,4,1,5,I,,1,,,,,,,
,,,,,,,,,,1,Emily,2023-09-27_15h43.37.069,Motor_Task,2023.2.2,MacIntel,31.25,72.198,72.531,1,1,0.321,,13,5,135,5,1,6,I,,1,,,,,,,
,,,,,,,,,,1,Emily,2023-09-27_15h43.37.069,Motor_Task,2023.2.2,MacIntel,31.25,72.531,72.998,3,1,0.446,,13,6,136,6,1,7,R,,3,,,,,,,
,,,,,,,,,,1,Emily,2023-09-27_15h43.37.069,Motor_Task,2023.2.2,MacIntel,31.25,72.998,73.299,2,1,0.276,,13,7,137,7,1,8,M,,2,,,,,,,
,,,,,,,,,,1,Emily,2023-09-27_15h43.37.069,Motor_Task,2023.2.2,MacIntel,31.25,73.299,73.598,4,1,0.277,,13,8,138,8,1,9,L,,4,,,,,,,
,,,,,,,,,,1,Emily,2023-09-27_15h43.37.069,Motor_Task,2023.2.2,MacIntel,31.25,73.598,73.965,1,1,0.345,,13,9,139,9,1,10,I,,1,,,,,,,
,,,,,,,,,,1,Emily,2023-09-27_15h43.37.069,Motor_Task,2023.2.2,MacIntel,31.25,73.965,74.397,2,1,0.418,,14,0,140,0,1,1,M,,2,,,,,,,
,,,,,,,,,,1,Emily,2023-09-27_15h43.37.069,Motor_Task,2023.2.2,MacIntel,31.25,74.398,74.698,3,1,0.28,,14,1,141,1,1,2,R,,3,,,,,,,
,,,,,,,,,,1,Emily,2023-09-27_15h43.37.069,Motor_Task,2023.2.2,MacIntel,31.25,74.698,75.031,2,1,0.31,,14,2,142,2,1,3,M,,2,,,,,,,
,,,,,,,,,,1,Emily,2023-09-27_15h43.37.069,Motor_Task,2023.2.2,MacIntel,31.25,75.031,75.365,2,0,0.309,,14,3,143,3,1,4,R,,3,,,,,,,
,,,,,,,,,,1,Emily,2023-09-27_15h43.37.069,Motor_Task,2023.2.2,MacIntel,31.25,75.365,76,1,1,0.609,,14,4,144,4,1,5,I,,1,,,,,,,
,,,,,,,,,,1,Emily,2023-09-27_15h43.37.069,Motor_Task,2023.2.2,MacIntel,31.25,76.001,76.564,1,1,0.541,,14,5,145,5,1,6,I,,1,,,,,,,
,,,,,,,,,,1,Emily,2023-09-27_15h43.37.069,Motor_Task,2023.2.2,MacIntel,31.25,76.565,76.997,3,1,0.424,,14,6,146,6,1,7,R,,3,,,,,,,
,,,,,,,,,,1,Emily,2023-09-27_15h43.37.069,Motor_Task,2023.2.2,MacIntel,31.25,76.998,77.332,2,1,0.318,,14,7,147,7,1,8,M,,2,,,,,,,
,,,,,,,,,,1,Emily,2023-09-27_15h43.37.069,Motor_Task,2023.2.2,MacIntel,31.25,77.332,77.631,4,1,0.276,,14,8,148,8,1,9,L,,4,,,,,,,
,,,,,,,,,,1,Emily,2023-09-27_15h43.37.069,Motor_Task,2023.2.2,MacIntel,31.25,77.631,77.998,1,1,0.344,,14,9,149,9,1,10,I,,1,,,,,,,
,,,,,,,,,,1,Emily,2023-09-27_15h43.37.069,Motor_Task,2023.2.2,MacIntel,31.25,77.998,78.299,1,0,0.28,,15,0,150,0,1,1,M,,2,,,,,,,
,,,,,,,,,,1,Emily,2023-09-27_15h43.37.069,Motor_Task,2023.2.2,MacIntel,31.25,78.299,78.931,3,1,0.613,,15,1,151,1,1,2,R,,3,,,,,,,
,,,,,,,,,,1,Emily,2023-09-27_15h43.37.069,Motor_Task,2023.2.2,MacIntel,31.25,78.931,79.331,2,1,0.379,,15,2,152,2,1,3,M,,2,,,,,,,
,,,,,,,,,,1,Emily,2023-09-27_15h43.37.069,Motor_Task,2023.2.2,MacIntel,31.25,79.331,79.798,3,1,0.444,,15,3,153,3,1,4,R,,3,,,,,,,
,,,,,,,,,,1,Emily,2023-09-27_15h43.37.069,Motor_Task,2023.2.2,MacIntel,31.25,79.798,80.098,1,1,0.289,,15,4,154,4,1,5,I,,1,,,,,,,
,,,,,,,,,,1,Emily,2023-09-27_15h43.37.069,Motor_Task,2023.2.2,MacIntel,31.25,80.098,80.564,1,1,0.446,,15,5,155,5,1,6,I,,1,,,,,,,
,,,,,,,,,,1,Emily,2023-09-27_15h43.37.069,Motor_Task,2023.2.2,MacIntel,31.25,80.565,80.831,4,0,0.252,,15,6,156,6,1,7,R,,3,,,,,,,
,,,,,,,,,,1,Emily,2023-09-27_15h43.37.069,Motor_Task,2023.2.2,MacIntel,31.25,80.831,81.165,2,1,0.315,,15,7,157,7,1,8,M,,2,,,,,,,
,,,,,,,,,,1,Emily,2023-09-27_15h43.37.069,Motor_Task,2023.2.2,MacIntel,31.25,81.165,81.931,4,1,0.748,,15,8,158,8,1,9,L,,4,,,,,,,
,,,,,,,,,,1,Emily,2023-09-27_15h43.37.069,Motor_Task,2023.2.2,MacIntel,31.25,81.931,82.331,1,1,0.381,,15,9,159,9,1,10,I,,1,,,,,,,
,,,,,,,,,,1,Emily,2023-09-27_15h43.37.069,Motor_Task,2023.2.2,MacIntel,31.25,82.331,82.865,2,1,0.515,,16,0,160,0,1,1,M,,2,,,,,,,
,,,,,,,,,,1,Emily,2023-09-27_15h43.37.069,Motor_Task,2023.2.2,MacIntel,31.25,82.866,83.132,3,1,0.247,,16,1,161,1,1,2,R,,3,,,,,,,
,,,,,,,,,,1,Emily,2023-09-27_15h43.37.069,Motor_Task,2023.2.2,MacIntel,31.25,83.132,83.531,2,1,0.381,,16,2,162,2,1,3,M,,2,,,,,,,
,,,,,,,,,,1,Emily,2023-09-27_15h43.37.069,Motor_Task,2023.2.2,MacIntel,31.25,83.531,83.799,3,1,0.249,,16,3,163,3,1,4,R,,3,,,,,,,
,,,,,,,,,,1,Emily,2023-09-27_15h43.37.069,Motor_Task,2023.2.2,MacIntel,31.25,83.799,84.131,1,1,0.315,,16,4,164,4,1,5,I,,1,,,,,,,
,,,,,,,,,,1,Emily,2023-09-27_15h43.37.069,Motor_Task,2023.2.2,MacIntel,31.25,84.131,84.432,1,1,0.281,,16,5,165,5,1,6,I,,1,,,,,,,
,,,,,,,,,,1,Emily,2023-09-27_15h43.37.069,Motor_Task,2023.2.2,MacIntel,31.25,84.432,84.832,3,1,0.381,,16,6,166,6,1,7,R,,3,,,,,,,
,,,,,,,,,,1,Emily,2023-09-27_15h43.37.069,Motor_Task,2023.2.2,MacIntel,31.25,84.832,85.132,2,1,0.281,,16,7,167,7,1,8,M,,2,,,,,,,
,,,,,,,,,,1,Emily,2023-09-27_15h43.37.069,Motor_Task,2023.2.2,MacIntel,31.25,85.132,85.498,4,1,0.348,,16,8,168,8,1,9,L,,4,,,,,,,
,,,,,,,,,,1,Emily,2023-09-27_15h43.37.069,Motor_Task,2023.2.2,MacIntel,31.25,85.498,85.864,1,1,0.349,,16,9,169,9,1,10,I,,1,,,,,,,
,,,,,,,,,,1,Emily,2023-09-27_15h43.37.069,Motor_Task,2023.2.2,MacIntel,31.25,85.865,86.199,2,1,0.315,,17,0,170,0,1,1,M,,2,,,,,,,
,,,,,,,,,,1,Emily,2023-09-27_15h43.37.069,Motor_Task,2023.2.2,MacIntel,31.25,86.199,86.498,3,1,0.28,,17,1,171,1,1,2,R,,3,,,,,,,
,,,,,,,,,,1,Emily,2023-09-27_15h43.37.069,Motor_Task,2023.2.2,MacIntel,31.25,86.498,86.864,2,1,0.349,,17,2,172,2,1,3,M,,2,,,,,,,
,,,,,,,,,,1,Emily,2023-09-27_15h43.37.069,Motor_Task,2023.2.2,MacIntel,31.25,86.865,87.232,3,1,0.348,,17,3,173,3,1,4,R,,3,,,,,,,
,,,,,,,,,,1,Emily,2023-09-27_15h43.37.069,Motor_Task,2023.2.2,MacIntel,31.25,87.232,87.599,1,1,0.347,,17,4,174,4,1,5,I,,1,,,,,,,
,,,,,,,,,,1,Emily,2023-09-27_15h43.37.069,Motor_Task,2023.2.2,MacIntel,31.25,87.599,87.965,1,1,0.348,,17,5,175,5,1,6,I,,1,,,,,,,
,,,,,,,,,,1,Emily,2023-09-27_15h43.37.069,Motor_Task,2023.2.2,MacIntel,31.25,87.966,88.498,3,1,0.514,,17,6,176,6,1,7,R,,3,,,,,,,
,,,,,,,,,,1,Emily,2023-09-27_15h43.37.069,Motor_Task,2023.2.2,MacIntel,31.25,88.498,88.832,2,1,0.315,,17,7,177,7,1,8,M,,2,,,,,,,
,,,,,,,,,,1,Emily,2023-09-27_15h43.37.069,Motor_Task,2023.2.2,MacIntel,31.25,88.832,89.165,4,1,0.314,,17,8,178,8,1,9,L,,4,,,,,,,
,,,,,,,,,,1,Emily,2023-09-27_15h43.37.069,Motor_Task,2023.2.2,MacIntel,31.25,89.166,89.565,1,1,0.381,,17,9,179,9,1,10,I,,1,,,,,,,
,,,,,,,,,,1,Emily,2023-09-27_15h43.37.069,Motor_Task,2023.2.2,MacIntel,31.25,89.566,90.098,2,1,0.514,,18,0,180,0,1,1,M,,2,,,,,,,
,,,,,,,,,,1,Emily,2023-09-27_15h43.37.069,Motor_Task,2023.2.2,MacIntel,31.25,90.098,90.398,3,1,0.282,,18,1,181,1,1,2,R,,3,,,,,,,
,,,,,,,,,,1,Emily,2023-09-27_15h43.37.069,Motor_Task,2023.2.2,MacIntel,31.25,90.398,90.832,2,1,0.415,,18,2,182,2,1,3,M,,2,,,,,,,
,,,,,,,,,,1,Emily,2023-09-27_15h43.37.069,Motor_Task,2023.2.2,MacIntel,31.25,90.832,91.332,3,1,0.481,,18,3,183,3,1,4,R,,3,,,,,,,
,,,,,,,,,,1,Emily,2023-09-27_15h43.37.069,Motor_Task,2023.2.2,MacIntel,31.25,91.332,91.699,1,1,0.348,,18,4,184,4,1,5,I,,1,,,,,,,
,,,,,,,,,,1,Emily,2023-09-27_15h43.37.069,Motor_Task,2023.2.2,MacIntel,31.25,91.699,92.032,1,1,0.314,,18,5,185,5,1,6,I,,1,,,,,,,
,,,,,,,,,,1,Emily,2023-09-27_15h43.37.069,Motor_Task,2023.2.2,MacIntel,31.25,92.032,92.532,3,1,0.481,,18,6,186,6,1,7,R,,3,,,,,,,
,,,,,,,,,,1,Emily,2023-09-27_15h43.37.069,Motor_Task,2023.2.2,MacIntel,31.25,92.532,92.799,2,1,0.247,,18,7,187,7,1,8,M,,2,,,,,,,
,,,,,,,,,,1,Emily,2023-09-27_15h43.37.069,Motor_Task,2023.2.2,MacIntel,31.25,92.799,93.099,4,1,0.28,,18,8,188,8,1,9,L,,4,,,,,,,
,,,,,,,,,,1,Emily,2023-09-27_15h43.37.069,Motor_Task,2023.2.2,MacIntel,31.25,93.099,93.464,1,1,0.347,,18,9,189,9,1,10,I,,1,,,,,,,
,,,,,,,,,,1,Emily,2023-09-27_15h43.37.069,Motor_Task,2023.2.2,MacIntel,31.25,93.465,93.965,2,1,0.482,,19,0,190,0,1,1,M,,2,,,,,,,
,,,,,,,,,,1,Emily,2023-09-27_15h43.37.069,Motor_Task,2023.2.2,MacIntel,31.25,93.965,94.232,3,1,0.248,,19,1,191,1,1,2,R,,3,,,,,,,
,,,,,,,,,,1,Emily,2023-09-27_15h43.37.069,Motor_Task,2023.2.2,MacIntel,31.25,94.232,94.565,2,1,0.314,,19,2,192,2,1,3,M,,2,,,,,,,
,,,,,,,,,,1,Emily,2023-09-27_15h43.37.069,Motor_Task,2023.2.2,MacIntel,31.25,94.565,94.865,3,1,0.282,,19,3,193,3,1,4,R,,3,,,,,,,
,,,,,,,,,,1,Emily,2023-09-27_15h43.37.069,Motor_Task,2023.2.2,MacIntel,31.25,94.865,95.231,1,1,0.348,,19,4,194,4,1,5,I,,1,,,,,,,
,,,,,,,,,,1,Emily,2023-09-27_15h43.37.069,Motor_Task,2023.2.2,MacIntel,31.25,95.231,95.565,1,1,0.315,,19,5,195,5,1,6,I,,1,,,,,,,
,,,,,,,,,,1,Emily,2023-09-27_15h43.37.069,Motor_Task,2023.2.2,MacIntel,31.25,95.566,95.965,3,1,0.38,,19,6,196,6,1,7,R,,3,,,,,,,
,,,,,,,,,,1,Emily,2023-09-27_15h43.37.069,Motor_Task,2023.2.2,MacIntel,31.25,95.965,96.231,2,1,0.248,,19,7,197,7,1,8,M,,2,,,,,,,
,,,,,,,,,,1,Emily,2023-09-27_15h43.37.069,Motor_Task,2023.2.2,MacIntel,31.25,96.231,96.598,4,1,0.348,,19,8,198,8,1,9,L,,4,,,,,,,
,,,,,,,,,,1,Emily,2023-09-27_15h43.37.069,Motor_Task,2023.2.2,MacIntel,31.25,96.598,96.931,1,1,0.314,,19,9,199,9,1,10,I,,1,,,,,,,
,,,,,,,,,,1,Emily,2023-09-27_15h43.37.069,Motor_Task,2023.2.2,MacIntel,31.25,96.945,97.465,2,1,0.502,,,,,,,8,M,,2,0,0,0,7,1,,
,,,,,,,,,,1,Emily,2023-09-27_15h43.37.069,Motor_Task,2023.2.2,MacIntel,31.25,97.466,97.698,3,0,0.214,,,,,,,3,M,,2,0,1,1,2,1,,
,,,,,,,,,,1,Emily,2023-09-27_15h43.37.069,Motor_Task,2023.2.2,MacIntel,31.25,97.698,98.599,3,1,0.881,,,,,,,2,R,,3,0,2,2,1,1,,
,,,,,,,,,,1,Emily,2023-09-27_15h43.37.069,Motor_Task,2023.2.2,MacIntel,31.25,98.599,99.198,3,0,0.581,,,,,,,9,L,,4,0,3,3,8,1,,
,,,,,,,,,,1,Emily,2023-09-27_15h43.37.069,Motor_Task,2023.2.2,MacIntel,31.25,99.199,99.298,4,0,0.081,,,,,,,1,M,,2,0,4,4,0,1,,
,,,,,,,,,,1,Emily,2023-09-27_15h43.37.069,Motor_Task,2023.2.2,MacIntel,31.25,99.299,99.899,4,0,0.581,,,,,,,7,R,,3,0,5,5,6,1,,
,,,,,,,,,,1,Emily,2023-09-27_15h43.37.069,Motor_Task,2023.2.2,MacIntel,31.25,99.899,99.931,3,0,0.015,,,,,,,5,I,,1,0,6,6,4,1,,
,,,,,,,,,,1,Emily,2023-09-27_15h43.37.069,Motor_Task,2023.2.2,MacIntel,31.25,99.931,100.131,3,1,0.182,,,,,,,4,R,,3,0,7,7,3,1,,
,,,,,,,,,,1,Emily,2023-09-27_15h43.37.069,Motor_Task,2023.2.2,MacIntel,31.25,100.131,100.465,3,0,0.315,,,,,,,6,I,,1,0,8,8,5,1,,
,,,,,,,,,,1,Emily,2023-09-27_15h43.37.069,Motor_Task,2023.2.2,MacIntel,31.25,100.465,100.999,1,1,0.515,,,,,,,10,I,,1,0,9,9,9,1,,
,,,,,,,,,,1,Emily,2023-09-27_15h43.37.069,Motor_Task,2023.2.2,MacIntel,31.25,100.999,101.632,4,1,0.615,,,,,,,9,L,,4,1,0,10,8,1,,
,,,,,,,,,,1,Emily,2023-09-27_15h43.37.069,Motor_Task,2023.2.2,MacIntel,31.25,101.632,102.198,1,1,0.548,,,,,,,5,I,,1,1,1,11,4,1,,
,,,,,,,,,,1,Emily,2023-09-27_15h43.37.069,Motor_Task,2023.2.2,MacIntel,31.25,102.199,102.765,2,1,0.548,,,,,,,1,M,,2,1,2,12,0,1,,
,,,,,,,,,,1,Emily,2023-09-27_15h43.37.069,Motor_Task,2023.2.2,MacIntel,31.25,102.765,103.364,1,1,0.583,,,,,,,10,I,,1,1,3,13,9,1,,
,,,,,,,,,,1,Emily,2023-09-27_15h43.37.069,Motor_Task,2023.2.2,MacIntel,31.25,103.364,103.998,3,1,0.615,,,,,,,2,R,,3,1,4,14,1,1,,
,,,,,,,,,,1,Emily,2023-09-27_15h43.37.069,Motor_Task,2023.2.2,MacIntel,31.25,103.998,104.532,2,1,0.517,,,,,,,8,M,,2,1,5,15,7,1,,
,,,,,,,,,,1,Emily,2023-09-27_15h43.37.069,Motor_Task,2023.2.2,MacIntel,31.25,104.532,105.064,3,0,0.51,,,,,,,3,M,,2,1,6,16,2,1,,
,,,,,,,,,,1,Emily,2023-09-27_15h43.37.069,Motor_Task,2023.2.2,MacIntel,31.25,105.064,105.631,3,1,0.546,,,,,,,7,R,,3,1,7,17,6,1,,
,,,,,,,,,,1,Emily,2023-09-27_15h43.37.069,Motor_Task,2023.2.2,MacIntel,31.25,105.631,106.199,1,1,0.544,,,,,,,6,I,,1,1,8,18,5,1,,
,,,,,,,,,,1,Emily,2023-09-27_15h43.37.069,Motor_Task,2023.2.2,MacIntel,31.25,106.199,106.731,3,1,0.509,,,,,,,4,R,,3,1,9,19,3,1,,
,,,,,,,,,,1,Emily,2023-09-27_15h43.37.069,Motor_Task,2023.2.2,MacIntel,31.25,106.732,107.299,4,1,0.544,,,,,,,9,L,,4,2,0,20,8,1,,
,,,,,,,,,,1,Emily,2023-09-27_15h43.37.069,Motor_Task,2023.2.2,MacIntel,31.25,107.299,107.831,2,1,0.51,,,,,,,8,M,,2,2,1,21,7,1,,
,,,,,,,,,,1,Emily,2023-09-27_15h43.37.069,Motor_Task,2023.2.2,MacIntel,31.25,107.831,108.365,1,1,0.51,,,,,,,6,I,,1,2,2,22,5,1,,
,,,,,,,,,,1,Emily,2023-09-27_15h43.37.069,Motor_Task,2023.2.2,MacIntel,31.25,108.365,108.865,3,1,0.477,,,,,,,7,R,,3,2,3,23,6,1,,
,,,,,,,,,,1,Emily,2023-09-27_15h43.37.069,Motor_Task,2023.2.2,MacIntel,31.25,108.865,109.398,3,1,0.509,,,,,,,2,R,,3,2,4,24,1,1,,
,,,,,,,,,,1,Emily,2023-09-27_15h43.37.069,Motor_Task,2023.2.2,MacIntel,31.25,109.398,109.965,1,1,0.544,,,,,,,5,I,,1,2,5,25,4,1,,
,,,,,,,,,,1,Emily,2023-09-27_15h43.37.069,Motor_Task,2023.2.2,MacIntel,31.25,109.965,110.498,2,1,0.511,,,,,,,3,M,,2,2,6,26,2,1,,
,,,,,,,,,,1,Emily,2023-09-27_15h43.37.069,Motor_Task,2023.2.2,MacIntel,31.25,110.498,111.031,2,1,0.511,,,,,,,1,M,,2,2,7,27,0,1,,
,,,,,,,,,,1,Emily,2023-09-27_15h43.37.069,Motor_Task,2023.2.2,MacIntel,31.25,111.031,111.599,1,1,0.544,,,,,,,10,I,,1,2,8,28,9,1,,
,,,,,,,,,,1,Emily,2023-09-27_15h43.37.069,Motor_Task,2023.2.2,MacIntel,31.25,111.599,112.098,3,1,0.476,,,,,,,4,R,,3,2,9,29,3,1,,
,,,,,,,,,,1,Emily,2023-09-27_15h43.37.069,Motor_Task,2023.2.2,MacIntel,31.25,112.098,112.632,3,1,0.512,,,,,,,2,R,,3,3,0,30,1,1,,
,,,,,,,,,,1,Emily,2023-09-27_15h43.37.069,Motor_Task,2023.2.2,MacIntel,31.25,112.632,113.165,2,0,0.525,,,,,,,5,I,,1,3,1,31,4,1,,
,,,,,,,,,,1,Emily,2023-09-27_15h43.37.069,Motor_Task,2023.2.2,MacIntel,31.25,113.165,113.732,2,1,0.544,,,,,,,1,M,,2,3,2,32,0,1,,
,,,,,,,,,,1,Emily,2023-09-27_15h43.37.069,Motor_Task,2023.2.2,MacIntel,31.25,113.732,114.332,2,1,0.576,,,,,,,8,M,,2,3,3,33,7,1,,
,,,,,,,,,,1,Emily,2023-09-27_15h43.37.069,Motor_Task,2023.2.2,MacIntel,31.25,114.332,114.831,3,1,0.49,,,,,,,7,R,,3,3,4,34,6,1,,
,,,,,,,,,,1,Emily,2023-09-27_15h43.37.069,Motor_Task,2023.2.2,MacIntel,31.25,114.832,115.364,1,0,0.525,,,,,,,3,M,,2,3,5,35,2,1,,
,,,,,,,,,,1,Emily,2023-09-27_15h43.37.069,Motor_Task,2023.2.2,MacIntel,31.25,115.365,115.931,3,1,0.543,,,,,,,4,R,,3,3,6,36,3,1,,
,,,,,,,,,,1,Emily,2023-09-27_15h43.37.069,Motor_Task,2023.2.2,MacIntel,31.25,115.932,116.565,4,1,0.609,,,,,,,9,L,,4,3,7,37,8,1,,
,,,,,,,,,,1,Emily,2023-09-27_15h43.37.069,Motor_Task,2023.2.2,MacIntel,31.25,116.566,117.131,1,1,0.542,,,,,,,10,I,,1,3,8,38,9,1,,
,,,,,,,,,,1,Emily,2023-09-27_15h43.37.069,Motor_Task,2023.2.2,MacIntel,31.25,117.131,117.699,1,1,0.544,,,,,,,6,I,,1,3,9,39,5,1,,
,,,,,,,,,,1,Emily,2023-09-27_15h43.37.069,Motor_Task,2023.2.2,MacIntel,31.25,117.699,118.265,3,1,0.542,,,,,,,7,R,,3,4,0,40,6,1,,
,,,,,,,,,,1,Emily,2023-09-27_15h43.37.069,Motor_Task,2023.2.2,MacIntel,31.25,118.265,118.731,2,1,0.455,,,,,,,3,M,,2,4,1,41,2,1,,
,,,,,,,,,,1,Emily,2023-09-27_15h43.37.069,Motor_Task,2023.2.2,MacIntel,31.25,118.731,119.264,1,1,0.524,,,,,,,6,I,,1,4,2,42,5,1,,
,,,,,,,,,,1,Emily,2023-09-27_15h43.37.069,Motor_Task,2023.2.2,MacIntel,31.25,119.265,119.865,1,1,0.576,,,,,,,10,I,,1,4,3,43,9,1,,
,,,,,,,,,,1,Emily,2023-09-27_15h43.37.069,Motor_Task,2023.2.2,MacIntel,31.25,119.865,120.398,1,1,0.518,,,,,,,5,I,,1,4,4,44,4,1,,
,,,,,,,,,,1,Emily,2023-09-27_15h43.37.069,Motor_Task,2023.2.2,MacIntel,31.25,120.398,120.965,2,1,0.544,,,,,,,1,M,,2,4,5,45,0,1,,
,,,,,,,,,,1,Emily,2023-09-27_15h43.37.069,Motor_Task,2023.2.2,MacIntel,31.25,120.965,121.499,2,1,0.51,,,,,,,8,M,,2,4,6,46,7,1,,
,,,,,,,,,,1,Emily,2023-09-27_15h43.37.069,Motor_Task,2023.2.2,MacIntel,31.25,121.499,121.999,3,1,0.477,,,,,,,4,R,,3,4,7,47,3,1,,
,,,,,,,,,,1,Emily,2023-09-27_15h43.37.069,Motor_Task,2023.2.2,MacIntel,31.25,121.999,122.532,3,0,0.509,,,,,,,9,L,,4,4,8,48,8,1,,
,,,,,,,,,,1,Emily,2023-09-27_15h43.37.069,Motor_Task,2023.2.2,MacIntel,31.25,122.532,122.598,4,0,0.049,,,,,,,2,R,,3,4,9,49,1,1,,
,,,,,,,,,,1,Emily,2023-09-27_15h43.37.069,Motor_Task,2023.2.2,MacIntel,31.25,,,,,,,,,,,,,,,,,,,,,122.601,126.598