Trigger.started,Trigger.stopped,key_resp_4.keys,mouse.x,mouse.y,mouse.leftButton,mouse.midButton,mouse.rightButton,Session,Subject,date,expName,psychopyVersion,OS,frameRate,complex_block.started,complex_block.stopped,key_resp.keys,key_resp.corr,key_resp.rt,key_resp.duration,complex_block_loop.thisRepN,complex_block_loop.thisTrialN,complex_block_loop.thisN,complex_block_loop.thisIndex,complex_block_loop.ran,trial,finger,markerPos,correctResp,new_block_loop.thisRepN,new_block_loop.thisTrialN,new_block_loop.thisN,new_block_loop.thisIndex,new_block_loop.ran,endBuffer.started,endBuffer.stopped
0,10.297,,-0.05,-0.301388889,1,0,0,1,IK,2023-09-27_15h43.37.219,Motor_Task,2023.2.2,Win32,144.092219,,,,,,,,,,,,,,,,,,,,,,
,,,,,,,,1,IK,2023-09-27_15h43.37.219,Motor_Task,2023.2.2,Win32,144.092219,10.309,11.402,2,1,1.088,,0,0,0,0,1,1,M,,2,,,,,,,
,,,,,,,,1,IK,2023-09-27_15h43.37.219,Motor_Task,2023.2.2,Win32,144.092219,11.402,12.062,3,1,0.658,,0,1,1,1,1,2,R,,3,,,,,,,
,,,,,,,,1,IK,2023-09-27_15h43.37.219,Motor_Task,2023.2.2,Win32,144.092219,12.062,12.778,2,1,0.711,,0,2,2,2,1,3,M,,2,,,,,,,
,,,,,,,,1,IK,2023-09-27_15h43.37.219,Motor_Task,2023.2.2,Win32,144.092219,12.778,13.374,3,1,0.593,,0,3,3,3,1,4,R,,3,,,,,,,
,,,,,,,,1,IK,2023-09-27_15h43.37.219,Motor_Task,2023.2.2,Win32,144.092219,13.375,13.993,1,1,0.614,,0,4,4,4,1,5,I,,1,,,,,,,
,,,,,,,,1,IK,2023-09-27_15h43.37.219,Motor_Task,2023.2.2,Win32,144.092219,13.993,14.597,1,1,0.6,,0,5,5,5,1,6,I,,1,,,,,,,
,,,,,,,,1,IK,2023-09-27_15h43.37.219,Motor_Task,2023.2.2,Win32,144.092219,14.597,15.096,2,0,0.499,,0,6,6,6,1,7,R,,3,,,,,,,
,,,,,,,,1,IK,2023-09-27_15h43.37.219,Motor_Task,2023.2.2,Win32,144.092219,15.096,16.18,2,1,1.081,,0,7,7,7,1,8,M,,2,,,,,,,
,,,,,,,,1,IK,2023-09-27_15h43.37.219,Motor_Task,2023.2.2,Win32,144.092219,16.18,17.339,4,1,1.157,,0,8,8,8,1,9,L,,4,,,,,,,
,,,,,,,,1,IK,2023-09-27_15h43.37.219,Motor_Task,2023.2.2,Win32,144.092219,17.34,17.923,1,1,0.58,,0,9,9,9,1,10,I,,1,,,,,,,
,,,,,,,,1,IK,2023-09-27_15h43.37.219,Motor_Task,2023.2.2,Win32,144.092219,17.923,18.534,2,1,0.608,,1,0,10,0,1,1,M,,2,,,,,,,
,,,,,,,,1,IK,2023-09-27_15h43.37.219,Motor_Task,2023.2.2,Win32,144.092219,18.535,19.076,3,1,0.538,,1,1,11,1,1,2,R,,3,,,,,,,
,,,,,,,,1,IK,2023-09-27_15h43.37.219,Motor_Task,2023.2.2,Win32,144.092219,19.077,19.749,2,1,0.669,,1,2,12,2,1,3,M,,2,,,,,,,
,,,,,,,,1,IK,2023-09-27_15h43.37.219,Motor_Task,2023.2.2,Win32,144.092219,19.749,20.339,3,1,0.589,,1,3,13,3,1,4,R,,3,,,,,,,
,,,,,,,,1,IK,2023-09-27_15h43.37.219,Motor_Task,2023.2.2,Win32,144.092219,20.34,20.881,1,1,0.538,,1,4,14,4,1,5,I,,1,,,,,,,
,,,,,,,,1,IK,2023-09-27_15h43.37.219,Motor_Task,2023.2.2,Win32,144.092219,20.881,21.416,1,1,0.532,,1,5,15,5,1,6,I,,1,,,,,,,
,,,,,,,,1,IK,2023-09-27_15h43.37.219,Motor_Task,2023.2.2,Win32,144.092219,21.416,22.111,3,1,0.69,,1,6,16,6,1,7,R,,3,,,,,,,
,,,,,,,,1,IK,2023-09-27_15h43.37.219,Motor_Task,2023.2.2,Win32,144.092219,22.111,22.874,2,1,0.76,,1,7,17,7,1,8,M,,2,,,,,,,
,,,,,,,,1,IK,2023-09-27_15h43.37.219,Motor_Task,2023.2.2,Win32,144.092219,22.874,23.437,1,0,0.562,,1,8,18,8,1,9,L,,4,,,,,,,
,,,,,,,,1,IK,2023-09-27_15h43.37.219,Motor_Task,2023.2.2,Win32,144.092219,23.437,24.193,1,1,0.754,,1,9,19,9,1,10,I,,1,,,,,,,
,,,,,,,,1,IK,2023-09-27_15h43.37.219,Motor_Task,2023.2.2,Win32,144.092219,24.193,24.833,2,1,0.637,,2,0,20,0,1,1,M,,2,,,,,,,
,,,,,,,,1,IK,2023-09-27_15h43.37.219,Motor_Task,2023.2.2,Win32,144.092219,24.833,25.416,3,1,0.581,,2,1,21,1,1,2,R,,3,,,,,,,
,,,,,,,,1,IK,2023-09-27_15h43.37.219,Motor_Task,2023.2.2,Win32,144.092219,25.416,25.992,2,1,0.573,,2,2,22,2,1,3,M,,2,,,,,,,
,,,,,,,,1,IK,2023-09-27_15h43.37.219,Motor_Task,2023.2.2,Win32,144.092219,25.992,26.61,3,1,0.615,,2,3,23,3,1,4,R,,3,,,,,,,
,,,,,,,,1,IK,2023-09-27_15h43.37.219,Motor_Task,2023.2.2,Win32,144.092219,26.61,27.263,1,1,0.649,,2,4,24,4,1,5,I,,1,,,,,,,
,,,,,,,,1,IK,2023-09-27_15h43.37.219,Motor_Task,2023.2.2,Win32,144.092219,27.263,27.784,1,1,0.519,,2,5,25,5,1,6,I,,1,,,,,,,
,,,,,,,,1,IK,2023-09-27_15h43.37.219,Motor_Task,2023.2.2,Win32,144.092219,27.784,28.444,3,1,0.655,,2,6,26,6,1,7,R,,3,,,,,,,
,,,,,,,,1,IK,2023-09-27_15h43.37.219,Motor_Task,2023.2.2,Win32,144.092219,28.444,28.986,2,1,0.54,,2,7,27,7,1,8,M,,2,,,,,,,
,,,,,,,,1,IK,2023-09-27_15h43.37.219,Motor_Task,2023.2.2,Win32,144.092219,28.986,29.561,4,1,0.573,,2,8,28,8,1,9,L,,4,,,,,,,
,,,,,,,,1,IK,2023-09-27_15h43.37.219,Motor_Task,2023.2.2,Win32,144.092219,29.561,30.395,1,1,0.829,,2,9,29,9,1,10,I,,1,,,,,,,
,,,,,,,,1,IK,2023-09-27_15h43.37.219,Motor_Task,2023.2.2,Win32,144.092219,30.396,30.86,2,1,0.461,,3,0,30,0,1,1,M,,2,,,,,,,
,,,,,,,,1,IK,2023-09-27_15h43.37.219,Motor_Task,2023.2.2,Win32,144.092219,30.86,31.374,3,1,0.511,,3,1,31,1,1,2,R,,3,,,,,,,
,,,,,,,,1,IK,2023-09-27_15h43.37.219,Motor_Task,2023.2.2,Win32,144.092219,31.374,31.93,2,1,0.551,,3,2,32,2,1,3,M,,2,,,,,,,
,,,,,,,,1,IK,2023-09-27_15h43.37.219,Motor_Task,2023.2.2,Win32,144.092219,31.932,32.513,3,1,0.579,,3,3,33,3,1,4,R,,3,,,,,,,
,,,,,,,,1,IK,2023-09-27_15h43.37.219,Motor_Task,2023.2.2,Win32,144.092219,32.514,33.103,1,1,0.588,,3,4,34,4,1,5,I,,1,,,,,,,
,,,,,,,,1,IK,2023-09-27_15h43.37.219,Motor_Task,2023.2.2,Win32,144.092219,33.103,33.625,1,1,0.52,,3,5,35,5,1,6,I,,1,,,,,,,
,,,,,,,,1,IK,2023-09-27_15h43.37.219,Motor_Task,2023.2.2,Win32,144.092219,33.625,34.375,3,1,0.746,,3,6,36,6,1,7,R,,3,,,,,,,
,,,,,,,,1,IK,2023-09-27_15h43.37.219,Motor_Task,2023.2.2,Win32,144.092219,34.375,34.86,2,1,0.484,,3,7,37,7,1,8,M,,2,,,,,,,
,,,,,,,,1,IK,2023-09-27_15h43.37.219,Motor_Task,2023.2.2,Win32,144.092219,34.861,35.492,4,1,0.628,,3,8,38,8,1,9,L,,4,,,,,,,
,,,,,,,,1,IK,2023-09-27_15h43.37.219,Motor_Task,2023.2.2,Win32,144.092219,35.493,36.048,1,1,0.552,,3,9,39,9,1,10,I,,1,,,,,,,
,,,,,,,,1,IK,2023-09-27_15h43.37.219,Motor_Task,2023.2.2,Win32,144.092219,36.049,36.569,2,1,0.517,,4,0,40,0,1,1,M,,2,,,,,,,
,,,,,,,,1,IK,2023-09-27_15h43.37.219,Motor_Task,2023.2.2,Win32,144.092219,36.569,37.075,3,1,0.503,,4,1,41,1,1,2,R,,3,,,,,,,
,,,,,,,,1,IK,2023-09-27_15h43.37.219,Motor_Task,2023.2.2,Win32,144.092219,37.076,37.916,2,1,0.837,,4,2,42,2,1,3,M,,2,,,,,,,
,,,,,,,,1,IK,2023-09-27_15h43.37.219,Motor_Task,2023.2.2,Win32,144.092219,37.916,38.353,3,1,0.436,,4,3,43,3,1,4,R,,3,,,,,,,
,,,,,,,,1,IK,2023-09-27_15h43.37.219,Motor_Task,2023.2.2,Win32,144.092219,38.353,38.999,1,1,0.644,,4,4,44,4,1,5,I,,1,,,,,,,
,,,,,,,,1,IK,2023-09-27_15h43.37.219,Motor_Task,2023.2.2,Win32,144.092219,39,39.521,1,1,0.52,,4,5,45,5,1,6,I,,1,,,,,,,
,,,,,,,,1,IK,2023-09-27_15h43.37.219,Motor_Task,2023.2.2,Win32,144.092219,39.521,40.166,3,1,0.644,,4,6,46,6,1,7,R,,3,,,,,,,
,,,,,,,,1,IK,2023-09-27_15h43.37.219,Motor_Task,2023.2.2,Win32,144.092219,40.167,40.68,2,1,0.511,,4,7,47,7,1,8,M,,2,,,,,,,
,,,,,,,,1,IK,2023-09-27_15h43.37.219,Motor_Task,2023.2.2,Win32,144.092219,40.68,41.256,4,1,0.573,,4,8,48,8,1,9,L,,4,,,,,,,
,,,,,,,,1,IK,2023-09-27_15h43.37.219,Motor_Task,2023.2.2,Win32,144.092219,41.256,41.839,1,1,0.582,,4,9,49,9,1,10,I,,1,,,,,,,
,,,,,,,,1,IK,2023-09-27_15h43.37.219,Motor_Task,2023.2.2,Win32,144.092219,41.84,42.395,2,1,0.552,,5,0,50,0,1,1,M,,2,,,,,,,
,,,,,,,,1,IK,2023-09-27_15h43.37.219,Motor_Task,2023.2.2,Win32,144.092219,42.396,42.896,3,1,0.497,,5,1,51,1,1,2,R,,3,,,,,,,
,,,,,,,,1,IK,2023-09-27_15h43.37.219,Motor_Task,2023.2.2,Win32,144.092219,42.896,43.638,2,1,0.739,,5,2,52,2,1,3,M,,2,,,,,,,
,,,,,,,,1,IK,2023-09-27_15h43.37.219,Motor_Task,2023.2.2,Win32,144.092219,43.638,44.076,3,1,0.434,,5,3,53,3,1,4,R,,3,,,,,,,
,,,,,,,,1,IK,2023-09-27_15h43.37.219,Motor_Task,2023.2.2,Win32,144.092219,44.076,44.535,1,1,0.455,,5,4,54,4,1,5,I,,1,,,,,,,
,,,,,,,,1,IK,2023-09-27_15h43.37.219,Motor_Task,2023.2.2,Win32,144.092219,44.535,45.048,1,1,0.511,,5,5,55,5,1,6,I,,1,,,,,,,
,,,,,,,,1,IK,2023-09-27_15h43.37.219,Motor_Task,2023.2.2,Win32,144.092219,45.048,45.68,3,1,0.629,,5,6,56,6,1,7,R,,3,,,,,,,
,,,,,,,,1,IK,2023-09-27_15h43.37.219,Motor_Task,2023.2.2,Win32,144.092219,45.68,46.208,2,1,0.525,,5,7,57,7,1,8,M,,2,,,,,,,
,,,,,,,,1,IK,2023-09-27_15h43.37.219,Motor_Task,2023.2.2,Win32,144.092219,46.208,46.86,4,1,0.65,,5,8,58,8,1,9,L,,4,,,,,,,
,,,,,,,,1,IK,2023-09-27_15h43.37.219,Motor_Task,2023.2.2,Win32,144.092219,46.86,47.409,1,1,0.546,,5,9,59,9,1,10,I,,1,,,,,,,
,,,,,,,,1,IK,2023-09-27_15h43.37.219,Motor_Task,2023.2.2,Win32,144.092219,47.409,47.937,2,1,0.525,,6,0,60,0,1,1,M,,2,,,,,,,
,,,,,,,,1,IK,2023-09-27_15h43.37.219,Motor_Task,2023.2.2,Win32,144.092219,47.937,48.436,3,1,0.496,,6,1,61,1,1,2,R,,3,,,,,,,
,,,,,,,,1,IK,2023-09-27_15h43.37.219,Motor_Task,2023.2.2,Win32,144.092219,48.437,48.972,2,1,0.532,,6,2,62,2,1,3,M,,2,,,,,,,
,,,,,,,,1,IK,2023-09-27_15h43.37.219,Motor_Task,2023.2.2,Win32,144.092219,48.972,49.645,3,1,0.671,,6,3,63,3,1,4,R,,3,,,,,,,
,,,,,,,,1,IK,2023-09-27_15h43.37.219,Motor_Task,2023.2.2,Win32,144.092219,49.645,50.124,1,1,0.477,,6,4,64,4,1,5,I,,1,,,,,,,
,,,,,,,,1,IK,2023-09-27_15h43.37.219,Motor_Task,2023.2.2,Win32,144.092219,50.124,50.604,1,1,0.477,,6,5,65,5,1,6,I,,1,,,,,,,
,,,,,,,,1,IK,2023-09-27_15h43.37.219,Motor_Task,2023.2.2,Win32,144.092219,50.604,51.277,3,1,0.673,,6,6,66,6,1,7,R,,3,,,,,,,
,,,,,,,,1,IK,2023-09-27_15h43.37.219,Motor_Task,2023.2.2,Win32,144.092219,51.277,51.735,2,1,0.455,,6,7,67,7,1,8,M,,2,,,,,,,
,,,,,,,,1,IK,2023-09-27_15h43.37.219,Motor_Task,2023.2.2,Win32,144.092219,51.735,52.298,4,1,0.561,,6,8,68,8,1,9,L,,4,,,,,,,
,,,,,,,,1,IK,2023-09-27_15h43.37.219,Motor_Task,2023.2.2,Win32,144.092219,52.298,52.812,1,1,0.51,,6,9,69,9,1,10,I,,1,,,,,,,
,,,,,,,,1,IK,2023-09-27_15h43.37.219,Motor_Task,2023.2.2,Win32,144.092219,52.812,53.222,2,1,0.409,,7,0,70,0,1,1,M,,2,,,,,,,
,,,,,,,,1,IK,2023-09-27_15h43.37.219,Motor_Task,2023.2.2,Win32,144.092219,53.222,53.693,3,1,0.471,,7,1,71,1,1,2,R,,3,,,,,,,
,,,,,,,,1,IK,2023-09-27_15h43.37.219,Motor_Task,2023.2.2,Win32,144.092219,53.693,54.228,2,1,0.532,,7,2,72,2,1,3,M,,2,,,,,,,
,,,,,,,,1,IK,2023-09-27_15h43.37.219,Motor_Task,2023.2.2,Win32,144.092219,54.229,54.7,3,1,0.469,,7,3,73,3,1,4,R,,3,,,,,,,
,,,,,,,,1,IK,2023-09-27_15h43.37.219,Motor_Task,2023.2.2,Win32,144.092219,54.7,55.201,1,1,0.497,,7,4,74,4,1,5,I,,1,,,,,,,
,,,,,,,,1,IK,2023-09-27_15h43.37.219,Motor_Task,2023.2.2,Win32,144.092219,55.201,55.721,1,1,0.519,,7,5,75,5,1,6,I,,1,,,,,,,
,,,,,,,,1,IK,2023-09-27_15h43.37.219,Motor_Task,2023.2.2,Win32,144.092219,55.722,56.215,3,1,0.49,,7,6,76,6,1,7,R,,3,,,,,,,
,,,,,,,,1,IK,2023-09-27_15h43.37.219,Motor_Task,2023.2.2,Win32,144.092219,56.215,56.68,2,1,0.462,,7,7,77,7,1,8,M,,2,,,,,,,
,,,,,,,,1,IK,2023-09-27_15h43.37.219,Motor_Task,2023.2.2,Win32,144.092219,56.68,57.208,4,1,0.525,,7,8,78,8,1,9,L,,4,,,,,,,
,,,,,,,,1,IK,2023-09-27_15h43.37.219,Motor_Task,2023.2.2,Win32,144.092219,57.208,57.687,1,1,0.475,,7,9,79,9,1,10,I,,1,,,,,,,
,,,,,,,,1,IK,2023-09-27_15h43.37.219,Motor_Task,2023.2.2,Win32,144.092219,57.687,58.145,2,1,0.453,,8,0,80,0,1,1,M,,2,,,,,,,
,,,,,,,,1,IK,2023-09-27_15h43.37.219,Motor_Task,2023.2.2,Win32,144.092219,58.145,58.672,3,1,0.524,,8,1,81,1,1,2,R,,3,,,,,,,
,,,,,,,,1,IK,2023-09-27_15h43.37.219,Motor_Task,2023.2.2,Win32,144.092219,58.673,59.145,1,0,0.47,,8,2,82,2,1,3,M,,2,,,,,,,
,,,,,,,,1,IK,2023-09-27_15h43.37.219,Motor_Task,2023.2.2,Win32,144.092219,59.145,60.075,3,1,0.927,,8,3,83,3,1,4,R,,3,,,,,,,
,,,,,,,,1,IK,2023-09-27_15h43.37.219,Motor_Task,2023.2.2,Win32,144.092219,60.075,60.735,1,1,0.657,,8,4,84,4,1,5,I,,1,,,,,,,
,,,,,,,,1,IK,2023-09-27_15h43.37.219,Motor_Task,2023.2.2,Win32,144.092219,60.735,61.228,1,1,0.492,,8,5,85,5,1,6,I,,1,,,,,,,
,,,,,,,,1,IK,2023-09-27_15h43.37.219,Motor_Task,2023.2.2,Win32,144.092219,61.229,61.699,3,1,0.469,,8,6,86,6,1,7,R,,3,,,,,,,
,,,,,,,,1,IK,2023-09-27_15h43.37.219,Motor_Task,2023.2.2,Win32,144.092219,61.699,62.193,2,1,0.492,,8,7,87,7,1,8,M,,2,,,,,,,
,,,,,,,,1,IK,2023-09-27_15h43.37.219,Motor_Task,2023.2.2,Win32,144.092219,62.194,62.68,3,0,0.483,,8,8,88,8,1,9,L,,4,,,,,,,
,,,,,,,,1,IK,2023-09-27_15h43.37.219,Motor_Task,2023.2.2,Win32,144.092219,62.68,62.84,4,0,0.157,,8,9,89,9,1,10,I,,1,,,,,,,
,,,,,,,,1,IK,2023-09-27_15h43.37.219,Motor_Task,2023.2.2,Win32,144.092219,62.84,63.93,2,1,1.087,,9,0,90,0,1,1,M,,2,,,,,,,
,,,,,,,,1,IK,2023-09-27_15h43.37.219,Motor_Task,2023.2.2,Win32,144.092219,63.93,64.457,3,1,0.525,,9,1,91,1,1,2,R,,3,,,,,,,
,,,,,,,,1,IK,2023-09-27_15h43.37.219,Motor_Task,2023.2.2,Win32,144.092219,64.457,64.965,2,1,0.504,,9,2,92,2,1,3,M,,2,,,,,,,
,,,,,,,,1,IK,2023-09-27_15h43.37.219,Motor_Task,2023.2.2,Win32,144.092219,64.965,65.45,3,1,0.484,,9,3,93,3,1,4,R,,3,,,,,,,
,,,,,,,,1,IK,2023-09-27_15h43.37.219,Motor_Task,2023.2.2,Win32,144.092219,65.451,66.042,1,1,0.589,,9,4,94,4,1,5,I,,1,,,,,,,
,,,,,,,,1,IK,2023-09-27_15h43.37.219,Motor_Task,2023.2.2,Win32,144.092219,66.043,66.555,1,1,0.51,,9,5,95,5,1,6,I,,1,,,,,,,
,,,,,,,,1,IK,2023-09-27_15h43.37.219,Motor_Task,2023.2.2,Win32,144.092219,66.556,67.117,3,1,0.558,,9,6,96,6,1,7,R,,3,,,,,,,
,,,,,,,,1,IK,2023-09-27_15h43.37.219,Motor_Task,2023.2.2,Win32,144.092219,67.118,67.618,2,1,0.496,,9,7,97,7,1,8,M,,2,,,,,,,
,,,,,,,,1,IK,2023-09-27_15h43.37.219,Motor_Task,2023.2.2,Win32,144.092219,67.618,68.214,4,1,0.594,,9,8,98,8,1,9,L,,4,,,,,,,
,,,,,,,,1,IK,2023-09-27_15h43.37.219,Motor_Task,2023.2.2,Win32,144.092219,68.215,69.013,1,1,0.795,,9,9,99,9,1,10,I,,1,,,,,,,
,,,,,,,,1,IK,2023-09-27_15h43.37.219,Motor_Task,2023.2.2,Win32,144.092219,69.013,69.465,2,1,0.448,,10,0,100,0,1,1,M,,2,,,,,,,
,,,,,,,,1,IK,2023-09-27_15h43.37.219,Motor_Task,2023.2.2,Win32,144.092219,69.465,69.943,3,1,0.477,,10,1,101,1,1,2,R,,3,,,,,,,
,,,,,,,,1,IK,2023-09-27_15h43.37.219,Motor_Task,2023.2.2,Win32,144.092219,69.944,70.472,2,1,0.525,,10,2,102,2,1,3,M,,2,,,,,,,
,,,,,,,,1,IK,2023-09-27_15h43.37.219,Motor_Task,2023.2.2,Win32,144.092219,70.473,70.978,3,1,0.504,,10,3,103,3,1,4,R,,3,,,,,,,
,,,,,,,,1,IK,2023-09-27_15h43.37.219,Motor_Task,2023.2.2,Win32,144.092219,70.979,71.673,1,1,0.691,,10,4,104,4,1,5,I,,1,,,,,,,
,,,,,,,,1,IK,2023-09-27_15h43.37.219,Motor_Task,2023.2.2,Win32,144.092219,71.674,72.138,1,1,0.461,,10,5,105,5,1,6,I,,1,,,,,,,
,,,,,,,,1,IK,2023-09-27_15h43.37.219,Motor_Task,2023.2.2,Win32,144.092219,72.139,72.694,3,1,0.552,,10,6,106,6,1,7,R,,3,,,,,,,
,,,,,,,,1,IK,2023-09-27_15h43.37.219,Motor_Task,2023.2.2,Win32,144.092219,72.694,73.173,2,1,0.478,,10,7,107,7,1,8,M,,2,,,,,,,
,,,,,,,,1,IK,2023-09-27_15h43.37.219,Motor_Task,2023.2.2,Win32,144.092219,73.173,73.736,4,1,0.56,,10,8,108,8,1,9,L,,4,,,,,,,
,,,,,,,,1,IK,2023-09-27_15h43.37.219,Motor_Task,2023.2.2,Win32,144.092219,73.736,74.242,1,1,0.504,,10,9,109,9,1,10,I,,1,,,,,,,
,,,,,,,,1,IK,2023-09-27_15h43.37.219,Motor_Task,2023.2.2,Win32,144.092219,74.242,74.708,2,1,0.463,,11,0,110,0,1,1,M,,2,,,,,,,
,,,,,,,,1,IK,2023-09-27_15h43.37.219,Motor_Task,2023.2.2,Win32,144.092219,74.708,75.173,3,1,0.461,,11,1,111,1,1,2,R,,3,,,,,,,
,,,,,,,,1,IK,2023-09-27_15h43.37.219,Motor_Task,2023.2.2,Win32,144.092219,75.173,75.631,1,0,0.455,,11,2,112,2,1,3,M,,2,,,,,,,
,,,,,,,,1,IK,2023-09-27_15h43.37.219,Motor_Task,2023.2.2,Win32,144.092219,75.632,76.562,3,1,0.927,,11,3,113,3,1,4,R,,3,,,,,,,
,,,,,,,,1,IK,2023-09-27_15h43.37.219,Motor_Task,2023.2.2,Win32,144.092219,76.563,77.221,1,1,0.655,,11,4,114,4,1,5,I,,1,,,,,,,
,,,,,,,,1,IK,2023-09-27_15h43.37.219,Motor_Task,2023.2.2,Win32,144.092219,77.222,77.665,1,1,0.443,,11,5,115,5,1,6,I,,1,,,,,,,
,,,,,,,,1,IK,2023-09-27_15h43.37.219,Motor_Task,2023.2.2,Win32,144.092219,77.666,78.242,3,1,0.576,,11,6,116,6,1,7,R,,3,,,,,,,
,,,,,,,,1,IK,2023-09-27_15h43.37.219,Motor_Task,2023.2.2,Win32,144.092219,78.242,78.729,2,1,0.483,,11,7,117,7,1,8,M,,2,,,,,,,
,,,,,,,,1,IK,2023-09-27_15h43.37.219,Motor_Task,2023.2.2,Win32,144.092219,78.729,79.298,4,1,0.566,,11,8,118,8,1,9,L,,4,,,,,,,
,,,,,,,,1,IK,2023-09-27_15h43.37.219,Motor_Task,2023.2.2,Win32,144.092219,79.298,79.77,1,1,0.472,,11,9,119,9,1,10,I,,1,,,,,,,
,,,,,,,,1,IK,2023-09-27_15h43.37.219,Motor_Task,2023.2.2,Win32,144.092219,79.77,80.36,2,1,0.588,,12,0,120,0,1,1,M,,2,,,,,,,
,,,,,,,,1,IK,2023-09-27_15h43.37.219,Motor_Task,2023.2.2,Win32,144.092219,80.361,80.818,3,1,0.456,,12,1,121,1,1,2,R,,3,,,,,,,
,,,,,,,,1,IK,2023-09-27_15h43.37.219,Motor_Task,2023.2.2,Win32,144.092219,80.819,81.311,2,1,0.49,,12,2,122,2,1,3,M,,2,,,,,,,
,,,,,,,,1,IK,2023-09-27_15h43.37.219,Motor_Task,2023.2.2,Win32,144.092219,81.312,81.736,3,1,0.42,,12,3,123,3,1,4,R,,3,,,,,,,
,,,,,,,,1,IK,2023-09-27_15h43.37.219,Motor_Task,2023.2.2,Win32,144.092219,81.737,82.249,1,1,0.509,,12,4,124,4,1,5,I,,1,,,,,,,
,,,,,,,,1,IK,2023-09-27_15h43.37.219,Motor_Task,2023.2.2,Win32,144.092219,82.249,82.77,1,1,0.518,,12,5,125,5,1,6,I,,1,,,,,,,
,,,,,,,,1,IK,2023-09-27_15h43.37.219,Motor_Task,2023.2.2,Win32,144.092219,82.771,83.36,3,1,0.588,,12,6,126,6,1,7,R,,3,,,,,,,
,,,,,,,,1,IK,2023-09-27_15h43.37.219,Motor_Task,2023.2.2,Win32,144.092219,83.36,83.804,2,1,0.442,,12,7,127,7,1,8,M,,2,,,,,,,
,,,,,,,,1,IK,2023-09-27_15h43.37.219,Motor_Task,2023.2.2,Win32,144.092219,83.805,84.36,4,1,0.554,,12,8,128,8,1,9,L,,4,,,,,,,
,,,,,,,,1,IK,2023-09-27_15h43.37.219,Motor_Task,2023.2.2,Win32,144.092219,84.36,84.951,1,1,0.588,,12,9,129,9,1,10,I,,1,,,,,,,
,,,,,,,,1,IK,2023-09-27_15h43.37.219,Motor_Task,2023.2.2,Win32,144.092219,84.951,85.374,2,1,0.422,,13,0,130,0,1,1,M,,2,,,,,,,
,,,,,,,,1,IK,2023-09-27_15h43.37.219,Motor_Task,2023.2.2,Win32,144.092219,85.374,85.868,3,1,0.491,,13,1,131,1,1,2,R,,3,,,,,,,
,,,,,,,,1,IK,2023-09-27_15h43.37.219,Motor_Task,2023.2.2,Win32,144.092219,85.868,86.381,2,1,0.511,,13,2,132,2,1,3,M,,2,,,,,,,
,,,,,,,,1,IK,2023-09-27_15h43.37.219,Motor_Task,2023.2.2,Win32,144.092219,86.381,86.833,3,1,0.449,,13,3,133,3,1,4,R,,3,,,,,,,
,,,,,,,,1,IK,2023-09-27_15h43.37.219,Motor_Task,2023.2.2,Win32,144.092219,86.834,87.311,1,1,0.475,,13,4,134,4,1,5,I,,1,,,,,,,
,,,,,,,,1,IK,2023-09-27_15h43.37.219,Motor_Task,2023.2.2,Win32,144.092219,87.312,87.812,1,1,0.498,,13,5,135,5,1,6,I,,1,,,,,,,
,,,,,,,,1,IK,2023-09-27_15h43.37.219,Motor_Task,2023.2.2,Win32,144.092219,87.812,88.319,3,1,0.503,,13,6,136,6,1,7,R,,3,,,,,,,
,,,,,,,,1,IK,2023-09-27_15h43.37.219,Motor_Task,2023.2.2,Win32,144.092219,88.319,88.778,2,1,0.454,,13,7,137,7,1,8,M,,2,,,,,,,
,,,,,,,,1,IK,2023-09-27_15h43.37.219,Motor_Task,2023.2.2,Win32,144.092219,88.778,89.388,4,1,0.608,,13,8,138,8,1,9,L,,4,,,,,,,
,,,,,,,,1,IK,2023-09-27_15h43.37.219,Motor_Task,2023.2.2,Win32,144.092219,89.388,89.874,1,1,0.483,,13,9,139,9,1,10,I,,1,,,,,,,
,,,,,,,,1,IK,2023-09-27_15h43.37.219,Motor_Task,2023.2.2,Win32,144.092219,89.875,90.395,2,1,0.518,,14,0,140,0,1,1,M,,2,,,,,,,
,,,,,,,,1,IK,2023-09-27_15h43.37.219,Motor_Task,2023.2.2,Win32,144.092219,90.395,90.833,3,1,0.434,,14,1,141,1,1,2,R,,3,,,,,,,
,,,,,,,,1,IK,2023-09-27_15h43.37.219,Motor_Task,2023.2.2,Win32,144.092219,90.834,91.353,2,1,0.518,,14,2,142,2,1,3,M,,2,,,,,,,
,,,,,,,,1,IK,2023-09-27_15h43.37.219,Motor_Task,2023.2.2,Win32,144.092219,91.353,91.77,3,1,0.416,,14,3,143,3,1,4,R,,3,,,,,,,
,,,,,,,,1,IK,2023-09-27_15h43.37.219,Motor_Task,2023.2.2,Win32,144.092219,91.77,92.27,1,1,0.5,,14,4,144,4,1,5,I,,1,,,,,,,
,,,,,,,,1,IK,2023-09-27_15h43.37.219,Motor_Task,2023.2.2,Win32,144.092219,92.271,92.735,1,1,0.461,,14,5,145,5,1,6,I,,1,,,,,,,
,,,,,,,,1,IK,2023-09-27_15h43.37.219,Motor_Task,2023.2.2,Win32,144.092219,92.736,93.242,3,1,0.503,,14,6,146,6,1,7,R,,3,,,,,,,
,,,,,,,,1,IK,2023-09-27_15h43.37.219,Motor_Task,2023.2.2,Win32,144.092219,93.243,93.722,2,1,0.476,,14,7,147,7,1,8,M,,2,,,,,,,
,,,,,,,,1,IK,2023-09-27_15h43.37.219,Motor_Task,2023.2.2,Win32,144.092219,93.722,94.228,4,1,0.503,,14,8,148,8,1,9,L,,4,,,,,,,
,,,,,,,,1,IK,2023-09-27_15h43.37.219,Motor_Task,2023.2.2,Win32,144.092219,94.229,94.77,1,1,0.537,,14,9,149,9,1,10,I,,1,,,,,,,
,,,,,,,,1,IK,2023-09-27_15h43.37.219,Motor_Task,2023.2.2,Win32,144.092219,94.77,95.339,2,1,0.567,,15,0,150,0,1,1,M,,2,,,,,,,
,,,,,,,,1,IK,2023-09-27_15h43.37.219,Motor_Task,2023.2.2,Win32,144.092219,95.339,95.812,3,1,0.47,,15,1,151,1,1,2,R,,3,,,,,,,
,,,,,,,,1,IK,2023-09-27_15h43.37.219,Motor_Task,2023.2.2,Win32,144.092219,95.812,96.312,2,1,0.499,,15,2,152,2,1,3,M,,2,,,,,,,
,,,,,,,,1,IK,2023-09-27_15h43.37.219,Motor_Task,2023.2.2,Win32,144.092219,96.312,96.839,3,1,0.525,,15,3,153,3,1,4,R,,3,,,,,,,
,,,,,,,,1,IK,2023-09-27_15h43.37.219,Motor_Task,2023.2.2,Win32,144.092219,96.84,97.452,1,1,0.608,,15,4,154,4,1,5,I,,1,,,,,,,
,,,,,,,,1,IK,2023-09-27_15h43.37.219,Motor_Task,2023.2.2,Win32,144.092219,97.452,97.957,1,1,0.503,,15,5,155,5,1,6,I,,1,,,,,,,
,,,,,,,,1,IK,2023-09-27_15h43.37.219,Motor_Task,2023.2.2,Win32,144.092219,97.958,98.472,3,1,0.51,,15,6,156,6,1,7,R,,3,,,,,,,
,,,,,,,,1,IK,2023-09-27_15h43.37.219,Motor_Task,2023.2.2,Win32,144.092219,98.473,98.902,2,1,0.426,,15,7,157,7,1,8,M,,2,,,,,,,
,,,,,,,,1,IK,2023-09-27_15h43.37.219,Motor_Task,2023.2.2,Win32,144.092219,98.902,99.402,4,1,0.496,,15,8,158,8,1,9,L,,4,,,,,,,
,,,,,,,,1,IK,2023-09-27_15h43.37.219,Motor_Task,2023.2.2,Win32,144.092219,99.403,99.902,1,1,0.496,,15,9,159,9,1,10,I,,1,,,,,,,
,,,,,,,,1,IK,2023-09-27_15h43.37.219,Motor_Task,2023.2.2,Win32,144.092219,99.902,100.333,2,1,0.428,,16,0,160,0,1,1,M,,2,,,,,,,
,,,,,,,,1,IK,2023-09-27_15h43.37.219,Motor_Task,2023.2.2,Win32,144.092219,100.335,100.853,3,1,0.516,,16,1,161,1,1,2,R,,3,,,,,,,
,,,,,,,,1,IK,2023-09-27_15h43.37.219,Motor_Task,2023.2.2,Win32,144.092219,100.854,101.36,2,1,0.503,,16,2,162,2,1,3,M,,2,,,,,,,
,,,,,,,,1,IK,2023-09-27_15h43.37.219,Motor_Task,2023.2.2,Win32,144.092219,101.361,101.826,3,1,0.462,,16,3,163,3,1,4,R,,3,,,,,,,
,,,,,,,,1,IK,2023-09-27_15h43.37.219,Motor_Task,2023.2.2,Win32,144.092219,101.826,102.416,1,1,0.587,,16,4,164,4,1,5,I,,1,,,,,,,
,,,,,,,,1,IK,2023-09-27_15h43.37.219,Motor_Task,2023.2.2,Win32,144.092219,102.416,102.833,1,1,0.414,,16,5,165,5,1,6,I,,1,,,,,,,
,,,,,,,,1,IK,2023-09-27_15h43.37.219,Motor_Task,2023.2.2,Win32,144.092219,102.833,103.333,3,1,0.498,,16,6,166,6,1,7,R,,3,,,,,,,
,,,,,,,,1,IK,2023-09-27_15h43.37.219,Motor_Task,2023.2.2,Win32,144.092219,103.333,103.832,2,1,0.496,,16,7,167,7,1,8,M,,2,,,,,,,
,,,,,,,,1,IK,2023-09-27_15h43.37.219,Motor_Task,2023.2.2,Win32,144.092219,103.833,104.402,4,1,0.568,,16,8,168,8,1,9,L,,4,,,,,,,
,,,,,,,,1,IK,2023-09-27_15h43.37.219,Motor_Task,2023.2.2,Win32,144.092219,104.402,104.867,1,1,0.463,,16,9,169,9,1,10,I,,1,,,,,,,
,,,,,,,,1,IK,2023-09-27_15h43.37.219,Motor_Task,2023.2.2,Win32,144.092219,104.868,105.361,2,1,0.49,,17,0,170,0,1,1,M,,2,,,,,,,
,,,,,,,,1,IK,2023-09-27_15h43.37.219,Motor_Task,2023.2.2,Win32,144.092219,105.361,105.86,3,1,0.498,,17,1,171,1,1,2,R,,3,,,,,,,
,,,,,,,,1,IK,2023-09-27_15h43.37.219,Motor_Task,2023.2.2,Win32,144.092219,105.86,106.381,2,1,0.518,,17,2,172,2,1,3,M,,2,,,,,,,
,,,,,,,,1,IK,2023-09-27_15h43.37.219,Motor_Task,2023.2.2,Win32,144.092219,106.381,106.812,3,1,0.43,,17,3,173,3,1,4,R,,3,,,,,,,
,,,,,,,,1,IK,2023-09-27_15h43.37.219,Motor_Task,2023.2.2,Win32,144.092219,106.812,107.292,1,1,0.476,,17,4,174,4,1,5,I,,1,,,,,,,
,,,,,,,,1,IK,2023-09-27_15h43.37.219,Motor_Task,2023.2.2,Win32,144.092219,107.292,107.77,1,1,0.476,,17,5,175,5,1,6,I,,1,,,,,,,
,,,,,,,,1,IK,2023-09-27_15h43.37.219,Motor_Task,2023.2.2,Win32,144.092219,107.77,108.353,3,1,0.578,,17,6,176,6,1,7,R,,3,,,,,,,
,,,,,,,,1,IK,2023-09-27_15h43.37.219,Motor_Task,2023.2.2,Win32,144.092219,108.353,108.825,2,1,0.468,,17,7,177,7,1,8,M,,2,,,,,,,
,,,,,,,,1,IK,2023-09-27_15h43.37.219,Motor_Task,2023.2.2,Win32,144.092219,108.825,109.298,4,1,0.471,,17,8,178,8,1,9,L,,4,,,,,,,
,,,,,,,,1,IK,2023-09-27_15h43.37.219,Motor_Task,2023.2.2,Win32,144.092219,109.298,109.728,1,1,0.429,,17,9,179,9,1,10,I,,1,,,,,,,
,,,,,,,,1,IK,2023-09-27_15h43.37.219,Motor_Task,2023.2.2,Win32,144.092219,109.728,110.228,2,1,0.497,,18,0,180,0,1,1,M,,2,,,,,,,
,,,,,,,,1,IK,2023-09-27_15h43.37.219,Motor_Task,2023.2.2,Win32,144.092219,110.229,110.631,3,1,0.401,,18,1,181,1,1,2,R,,3,,,,,,,
,,,,,,,,1,IK,2023-09-27_15h43.37.219,Motor_Task,2023.2.2,Win32,144.092219,110.631,111.151,2,1,0.519,,18,2,182,2,1,3,M,,2,,,,,,,
,,,,,,,,1,IK,2023-09-27_15h43.37.219,Motor_Task,2023.2.2,Win32,144.092219,111.152,111.631,3,1,0.478,,18,3,183,3,1,4,R,,3,,,,,,,
,,,,,,,,1,IK,2023-09-27_15h43.37.219,Motor_Task,2023.2.2,Win32,144.092219,111.631,112.193,1,1,0.559,,18,4,184,4,1,5,I,,1,,,,,,,
,,,,,,,,1,IK,2023-09-27_15h43.37.219,Motor_Task,2023.2.2,Win32,144.092219,112.194,112.624,1,1,0.427,,18,5,185,5,1,6,I,,1,,,,,,,
,,,,,,,,1,IK,2023-09-27_15h43.37.219,Motor_Task,2023.2.2,Win32,144.092219,112.624,113.097,3,1,0.47,,18,6,186,6,1,7,R,,3,,,,,,,
,,,,,,,,1,IK,2023-09-27_15h43.37.219,Motor_Task,2023.2.2,Win32,144.092219,113.097,113.589,2,1,0.491,,18,7,187,7,1,8,M,,2,,,,,,,
,,,,,,,,1,IK,2023-09-27_15h43.37.219,Motor_Task,2023.2.2,Win32,144.092219,113.589,114.18,4,1,0.588,,18,8,188,8,1,9,L,,4,,,,,,,
,,,,,,,,1,IK,2023-09-27_15h43.37.219,Motor_Task,2023.2.2,Win32,144.092219,114.181,114.61,1,1,0.426,,18,9,189,9,1,10,I,,1,,,,,,,
,,,,,,,,1,IK,2023-09-27_15h43.37.219,Motor_Task,2023.2.2,Win32,144.092219,114.611,115.124,2,1,0.511,,19,0,190,0,1,1,M,,2,,,,,,,
,,,,,,,,1,IK,2023-09-27_15h43.37.219,Motor_Task,2023.2.2,Win32,144.092219,115.124,115.52,3,1,0.393,,19,1,191,1,1,2,R,,3,,,,,,,
,,,,,,,,1,IK,2023-09-27_15h43.37.219,Motor_Task,2023.2.2,Win32,144.092219,115.52,116.054,2,1,0.534,,19,2,192,2,1,3,M,,2,,,,,,,
,,,,,,,,1,IK,2023-09-27_15h43.37.219,Motor_Task,2023.2.2,Win32,144.092219,116.054,116.422,3,1,0.365,,19,3,193,3,1,4,R,,3,,,,,,,
,,,,,,,,1,IK,2023-09-27_15h43.37.219,Motor_Task,2023.2.2,Win32,144.092219,116.423,116.895,1,1,0.468,,19,4,194,4,1,5,I,,1,,,,,,,
,,,,,,,,1,IK,2023-09-27_15h43.37.219,Motor_Task,2023.2.2,Win32,144.092219,116.896,117.374,1,1,0.474,,19,5,195,5,1,6,I,,1,,,,,,,
,,,,,,,,1,IK,2023-09-27_15h43.37.219,Motor_Task,2023.2.2,Win32,144.092219,117.375,117.874,3,1,0.497,,19,6,196,6,1,7,R,,3,,,,,,,
,,,,,,,,1,IK,2023-09-27_15h43.37.219,Motor_Task,2023.2.2,Win32,144.092219,117.874,118.334,2,1,0.456,,19,7,197,7,1,8,M,,2,,,,,,,
,,,,,,,,1,IK,2023-09-27_15h43.37.219,Motor_Task,2023.2.2,Win32,144.092219,118.334,118.93,4,1,0.593,,19,8,198,8,1,9,L,,4,,,,,,,
,,,,,,,,1,IK,2023-09-27_15h43.37.219,Motor_Task,2023.2.2,Win32,144.092219,118.93,119.374,1,1,0.442,,19,9,199,9,1,10,I,,1,,,,,,,
,,,,,,,,1,IK,2023-09-27_15h43.37.219,Motor_Task,2023.2.2,Win32,144.092219,119.385,119.839,1,1,0.451,,,,,,,5,I,,1,0,0,0,4,1,,
,,,,,,,,1,IK,2023-09-27_15h43.37.219,Motor_Task,2023.2.2,Win32,144.092219,119.839,120.471,3,1,0.628,,,,,,,4,R,,3,0,1,1,3,1,,
,,,,,,,,1,IK,2023-09-27_15h43.37.219,Motor_Task,2023.2.2,Win32,144.092219,120.471,120.812,2,1,0.337,,,,,,,1,M,,2,0,2,2,0,1,,
,,,,,,,,1,IK,2023-09-27_15h43.37.219,Motor_Task,2023.2.2,Win32,144.092219,120.812,121.284,3,1,0.468,,,,,,,7,R,,3,0,3,3,6,1,,
,,,,,,,,1,IK,2023-09-27_15h43.37.219,Motor_Task,2023.2.2,Win32,144.092219,121.285,122.201,2,1,0.914,,,,,,,8,M,,2,0,4,4,7,1,,
,,,,,,,,1,IK,2023-09-27_15h43.37.219,Motor_Task,2023.2.2,Win32,144.092219,122.201,122.562,3,0,0.358,,,,,,,6,I,,1,0,5,5,5,1,,
,,,,,,,,1,IK,2023-09-27_15h43.37.219,Motor_Task,2023.2.2,Win32,144.092219,122.562,123.451,3,1,0.886,,,,,,,2,R,,3,0,6,6,1,1,,
,,,,,,,,1,IK,2023-09-27_15h43.37.219,Motor_Task,2023.2.2,Win32,144.092219,123.451,124.02,4,1,0.565,,,,,,,9,L,,4,0,7,7,8,1,,
,,,,,,,,1,IK,2023-09-27_15h43.37.219,Motor_Task,2023.2.2,Win32,144.092219,124.02,124.936,2,1,0.913,,,,,,,3,M,,2,0,8,8,2,1,,
,,,,,,,,1,IK,2023-09-27_15h43.37.219,Motor_Task,2023.2.2,Win32,144.092219,124.937,125.492,1,1,0.552,,,,,,,10,I,,1,0,9,9,9,1,,
,,,,,,,,1,IK,2023-09-27_15h43.37.219,Motor_Task,2023.2.2,Win32,144.092219,125.492,126.111,3,1,0.616,,,,,,,4,R,,3,1,0,10,3,1,,
,,,,,,,,1,IK,2023-09-27_15h43.37.219,Motor_Task,2023.2.2,Win32,144.092219,126.111,126.722,4,1,0.608,,,,,,,9,L,,4,1,1,11,8,1,,
,,,,,,,,1,IK,2023-09-27_15h43.37.219,Motor_Task,2023.2.2,Win32,144.092219,126.722,127.353,1,1,0.629,,,,,,,5,I,,1,1,2,12,4,1,,
,,,,,,,,1,IK,2023-09-27_15h43.37.219,Motor_Task,2023.2.2,Win32,144.092219,127.354,127.839,2,1,0.482,,,,,,,1,M,,2,1,3,13,0,1,,
,,,,,,,,1,IK,2023-09-27_15h43.37.219,Motor_Task,2023.2.2,Win32,144.092219,127.839,128.297,3,1,0.456,,,,,,,2,R,,3,1,4,14,1,1,,
,,,,,,,,1,IK,2023-09-27_15h43.37.219,Motor_Task,2023.2.2,Win32,144.092219,128.298,128.861,2,1,0.559,,,,,,,3,M,,2,1,5,15,2,1,,
,,,,,,,,1,IK,2023-09-27_15h43.37.219,Motor_Task,2023.2.2,Win32,144.092219,128.861,129.208,3,0,0.344,,,,,,,6,I,,1,1,6,16,5,1,,
,,,,,,,,1,IK,2023-09-27_15h43.37.219,Motor_Task,2023.2.2,Win32,144.092219,129.208,130.2,2,1,0.99,,,,,,,8,M,,2,1,7,17,7,1,,
,,,,,,,,1,IK,2023-09-27_15h43.37.219,Motor_Task,2023.2.2,Win32,144.092219,130.201,130.861,1,1,0.659,,,,,,,10,I,,1,1,8,18,9,1,,
,,,,,,,,1,IK,2023-09-27_15h43.37.219,Motor_Task,2023.2.2,Win32,144.092219,130.861,131.388,3,1,0.525,,,,,,,7,R,,3,1,9,19,6,1,,
,,,,,,,,1,IK,2023-09-27_15h43.37.219,Motor_Task,2023.2.2,Win32,144.092219,131.389,131.944,2,1,0.552,,,,,,,3,M,,2,2,0,20,2,1,,
,,,,,,,,1,IK,2023-09-27_15h43.37.219,Motor_Task,2023.2.2,Win32,144.092219,131.945,132.478,2,1,0.531,,,,,,,8,M,,2,2,1,21,7,1,,
,,,,,,,,1,IK,2023-09-27_15h43.37.219,Motor_Task,2023.2.2,Win32,144.092219,132.479,133.132,4,1,0.649,,,,,,,9,L,,4,2,2,22,8,1,,
,,,,,,,,1,IK,2023-09-27_15h43.37.219,Motor_Task,2023.2.2,Win32,144.092219,133.132,133.841,3,1,0.705,,,,,,,2,R,,3,2,3,23,1,1,,
,,,,,,,,1,IK,2023-09-27_15h43.37.219,Motor_Task,2023.2.2,Win32,144.092219,133.843,134.582,1,1,0.738,,,,,,,6,I,,1,2,4,24,5,1,,
,,,,,,,,1,IK,2023-09-27_15h43.37.219,Motor_Task,2023.2.2,Win32,144.092219,134.582,135.096,1,1,0.511,,,,,,,10,I,,1,2,5,25,9,1,,
,,,,,,,,1,IK,2023-09-27_15h43.37.219,Motor_Task,2023.2.2,Win32,144.092219,135.097,135.701,3,1,0.602,,,,,,,7,R,,3,2,6,26,6,1,,
,,,,,,,,1,IK,2023-09-27_15h43.37.219,Motor_Task,2023.2.2,Win32,144.092219,135.702,136.131,2,1,0.427,,,,,,,1,M,,2,2,7,27,0,1,,
,,,,,,,,1,IK,2023-09-27_15h43.37.219,Motor_Task,2023.2.2,Win32,144.092219,136.131,136.673,3,1,0.538,,,,,,,4,R,,3,2,8,28,3,1,,
,,,,,,,,1,IK,2023-09-27_15h43.37.219,Motor_Task,2023.2.2,Win32,144.092219,136.674,137.221,1,1,0.546,,,,,,,5,I,,1,2,9,29,4,1,,
,,,,,,,,1,IK,2023-09-27_15h43.37.219,Motor_Task,2023.2.2,Win32,144.092219,137.222,137.715,1,1,0.49,,,,,,,6,I,,1,3,0,30,5,1,,
,,,,,,,,1,IK,2023-09-27_15h43.37.219,Motor_Task,2023.2.2,Win32,144.092219,137.715,138.208,1,1,0.49,,,,,,,10,I,,1,3,1,31,9,1,,
,,,,,,,,1,IK,2023-09-27_15h43.37.219,Motor_Task,2023.2.2,Win32,144.092219,138.208,138.798,3,1,0.587,,,,,,,4,R,,3,3,2,32,3,1,,
,,,,,,,,1,IK,2023-09-27_15h43.37.219,Motor_Task,2023.2.2,Win32,144.092219,138.798,139.319,2,1,0.52,,,,,,,8,M,,2,3,3,33,7,1,,
,,,,,,,,1,IK,2023-09-27_15h43.37.219,Motor_Task,2023.2.2,Win32,144.092219,139.319,139.861,2,1,0.539,,,,,,,3,M,,2,3,4,34,2,1,,
,,,,,,,,1,IK,2023-09-27_15h43.37.219,Motor_Task,2023.2.2,Win32,144.092219,139.861,140.395,1,1,0.532,,,,,,,5,I,,1,3,5,35,4,1,,
,,,,,,,,1,IK,2023-09-27_15h43.37.219,Motor_Task,2023.2.2,Win32,144.092219,140.396,141.096,4,1,0.698,,,,,,,9,L,,4,3,6,36,8,1,,
,,,,,,,,1,IK,2023-09-27_15h43.37.219,Motor_Task,2023.2.2,Win32,144.092219,141.097,141.763,2,1,0.663,,,,,,,1,M,,2,3,7,37,0,1,,
,,,,,,,,1,IK,2023-09-27_15h43.37.219,Motor_Task,2023.2.2,Win32,144.092219,141.763,142.2,3,1,0.435,,,,,,,7,R,,3,3,8,38,6,1,,
,,,,,,,,1,IK,2023-09-27_15h43.37.219,Motor_Task,2023.2.2,Win32,144.092219,142.201,142.764,3,1,0.559,,,,,,,2,R,,3,3,9,39,1,1,,
,,,,,,,,1,IK,2023-09-27_15h43.37.219,Motor_Task,2023.2.2,Win32,144.092219,142.764,143.27,3,1,0.503,,,,,,,4,R,,3,4,0,40,3,1,,
,,,,,,,,1,IK,2023-09-27_15h43.37.219,Motor_Task,2023.2.2,Win32,144.092219,143.271,143.769,3,1,0.496,,,,,,,2,R,,3,4,1,41,1,1,,
,,,,,,,,1,IK,2023-09-27_15h43.37.219,Motor_Task,2023.2.2,Win32,144.092219,143.77,144.297,1,1,0.524,,,,,,,10,I,,1,4,2,42,9,1,,
,,,,,,,,1,IK,2023-09-27_15h43.37.219,Motor_Task,2023.2.2,Win32,144.092219,144.298,144.825,3,0,0.525,,,,,,,3,M,,2,4,3,43,2,1,,
,,,,,,,,1,IK,2023-09-27_15h43.37.219,Motor_Task,2023.2.2,Win32,144.092219,144.826,144.957,2,1,0.128,,,,,,,1,M,,2,4,4,44,0,1,,
,,,,,,,,1,IK,2023-09-27_15h43.37.219,Motor_Task,2023.2.2,Win32,144.092219,144.957,145.596,2,1,0.636,,,,,,,8,M,,2,4,5,45,7,1,,
,,,,,,,,1,IK,2023-09-27_15h43.37.219,Motor_Task,2023.2.2,Win32,144.092219,145.596,146.276,4,1,0.678,,,,,,,9,L,,4,4,6,46,8,1,,
,,,,,,,,1,IK,2023-09-27_15h43.37.219,Motor_Task,2023.2.2,Win32,144.092219,146.277,146.985,3,1,0.705,,,,,,,7,R,,3,4,7,47,6,1,,
,,,,,,,,1,IK,2023-09-27_15h43.37.219,Motor_Task,2023.2.2,Win32,144.092219,146.986,147.61,1,1,0.624,,,,,,,6,I,,1,4,8,48,5,1,,
,,,,,,,,1,IK,2023-09-27_15h43.37.219,Motor_Task,2023.2.2,Win32,144.092219,147.61,148.047,1,1,0.435,,,,,,,5,I,,1,4,9,49,4,1,,
,,,,,,,,1,IK,2023-09-27_15h43.37.219,Motor_Task,2023.2.2,Win32,144.092219,,,,,,,,,,,,,,,,,,,,,148.048,152.047