Trigger.started,Trigger.stopped,key_resp_4.keys,key_resp_4.rt,key_resp_4.duration,mouse.x,mouse.y,mouse.leftButton,mouse.midButton,mouse.rightButton,Session,Subject,date,expName,psychopyVersion,OS,frameRate,complex_block.started,complex_block.stopped,key_resp.keys,key_resp.corr,key_resp.rt,key_resp.duration,complex_block_loop.thisRepN,complex_block_loop.thisTrialN,complex_block_loop.thisN,complex_block_loop.thisIndex,complex_block_loop.ran,trial,finger,markerPos,correctResp,new_block_loop.thisRepN,new_block_loop.thisTrialN,new_block_loop.thisN,new_block_loop.thisIndex,new_block_loop.ran,endBuffer.started,endBuffer.stopped
1E-04,30.2333,2,30.2085,,-0.174097222,-0.377773437,0,0,0,1,Ilan Ladabaum,2023-09-27_15h43.04.417,Motor_Task,2023.2.2,MacIntel,60.0024001,,,,,,,,,,,,,,,,,,,,,,
,,,,,,,,,,1,Ilan Ladabaum,2023-09-27_15h43.04.417,Motor_Task,2023.2.2,MacIntel,60.0024001,30.2569,31.0704,2,1,0.8061,,0,0,0,0,1,1,M,,2,,,,,,,
,,,,,,,,,,1,Ilan Ladabaum,2023-09-27_15h43.04.417,Motor_Task,2023.2.2,MacIntel,60.0024001,31.0713,31.636,3,1,0.5537,,0,1,1,1,1,2,R,,3,,,,,,,
,,,,,,,,,,1,Ilan Ladabaum,2023-09-27_15h43.04.417,Motor_Task,2023.2.2,MacIntel,60.0024001,31.6368,32.2007,2,1,0.5548,,0,2,2,2,1,3,M,,2,,,,,,,
,,,,,,,,,,1,Ilan Ladabaum,2023-09-27_15h43.04.417,Motor_Task,2023.2.2,MacIntel,60.0024001,32.2014,32.7512,2,0,0.5396,,0,3,3,3,1,4,R,,3,,,,,,,
,,,,,,,,,,1,Ilan Ladabaum,2023-09-27_15h43.04.417,Motor_Task,2023.2.2,MacIntel,60.0024001,32.7517,33.4056,1,1,0.6392,,0,4,4,4,1,5,I,,1,,,,,,,
,,,,,,,,,,1,Ilan Ladabaum,2023-09-27_15h43.04.417,Motor_Task,2023.2.2,MacIntel,60.0024001,33.4064,33.9863,1,1,0.5712,,0,5,5,5,1,6,I,,1,,,,,,,
,,,,,,,,,,1,Ilan Ladabaum,2023-09-27_15h43.04.417,Motor_Task,2023.2.2,MacIntel,60.0024001,33.9869,34.5185,3,1,0.524,,0,6,6,6,1,7,R,,3,,,,,,,
,,,,,,,,,,1,Ilan Ladabaum,2023-09-27_15h43.04.417,Motor_Task,2023.2.2,MacIntel,60.0024001,34.519,35.0696,2,1,0.5453,,0,7,7,7,1,8,M,,2,,,,,,,
,,,,,,,,,,1,Ilan Ladabaum,2023-09-27_15h43.04.417,Motor_Task,2023.2.2,MacIntel,60.0024001,35.0705,35.6852,4,1,0.6111,,0,8,8,8,1,9,L,,4,,,,,,,
,,,,,,,,,,1,Ilan Ladabaum,2023-09-27_15h43.04.417,Motor_Task,2023.2.2,MacIntel,60.0024001,35.6858,36.2871,1,1,0.5866,,0,9,9,9,1,10,I,,1,,,,,,,
,,,,,,,,,,1,Ilan Ladabaum,2023-09-27_15h43.04.417,Motor_Task,2023.2.2,MacIntel,60.0024001,36.2878,36.852,2,1,0.5541,,1,0,10,0,1,1,M,,2,,,,,,,
,,,,,,,,,,1,Ilan Ladabaum,2023-09-27_15h43.04.417,Motor_Task,2023.2.2,MacIntel,60.0024001,36.8526,37.3857,3,1,0.5292,,1,1,11,1,1,2,R,,3,,,,,,,
,,,,,,,,,,1,Ilan Ladabaum,2023-09-27_15h43.04.417,Motor_Task,2023.2.2,MacIntel,60.0024001,37.3863,37.9518,2,1,0.555,,1,2,12,2,1,3,M,,2,,,,,,,
,,,,,,,,,,1,Ilan Ladabaum,2023-09-27_15h43.04.417,Motor_Task,2023.2.2,MacIntel,60.0024001,37.9523,38.4841,3,1,0.522,,1,3,13,3,1,4,R,,3,,,,,,,
,,,,,,,,,,1,Ilan Ladabaum,2023-09-27_15h43.04.417,Motor_Task,2023.2.2,MacIntel,60.0024001,38.4851,39.0359,1,1,0.544,,1,4,14,4,1,5,I,,1,,,,,,,
,,,,,,,,,,1,Ilan Ladabaum,2023-09-27_15h43.04.417,Motor_Task,2023.2.2,MacIntel,60.0024001,39.0365,39.6161,1,1,0.568,,1,5,15,5,1,6,I,,1,,,,,,,
,,,,,,,,,,1,Ilan Ladabaum,2023-09-27_15h43.04.417,Motor_Task,2023.2.2,MacIntel,60.0024001,39.6165,40.1682,3,1,0.5374,,1,6,16,6,1,7,R,,3,,,,,,,
,,,,,,,,,,1,Ilan Ladabaum,2023-09-27_15h43.04.417,Motor_Task,2023.2.2,MacIntel,60.0024001,40.1689,40.6698,2,1,0.4886,,1,7,17,7,1,8,M,,2,,,,,,,
,,,,,,,,,,1,Ilan Ladabaum,2023-09-27_15h43.04.417,Motor_Task,2023.2.2,MacIntel,60.0024001,40.6707,41.218,4,1,0.5456,,1,8,18,8,1,9,L,,4,,,,,,,
,,,,,,,,,,1,Ilan Ladabaum,2023-09-27_15h43.04.417,Motor_Task,2023.2.2,MacIntel,60.0024001,41.2184,41.7683,1,1,0.5394,,1,9,19,9,1,10,I,,1,,,,,,,
,,,,,,,,,,1,Ilan Ladabaum,2023-09-27_15h43.04.417,Motor_Task,2023.2.2,MacIntel,60.0024001,41.769,42.2999,2,1,0.5226,,2,0,20,0,1,1,M,,2,,,,,,,
,,,,,,,,,,1,Ilan Ladabaum,2023-09-27_15h43.04.417,Motor_Task,2023.2.2,MacIntel,60.0024001,42.3003,42.8025,3,1,0.4904,,2,1,21,1,1,2,R,,3,,,,,,,
,,,,,,,,,,1,Ilan Ladabaum,2023-09-27_15h43.04.417,Motor_Task,2023.2.2,MacIntel,60.0024001,42.803,43.3037,2,1,0.4884,,2,2,22,2,1,3,M,,2,,,,,,,
,,,,,,,,,,1,Ilan Ladabaum,2023-09-27_15h43.04.417,Motor_Task,2023.2.2,MacIntel,60.0024001,43.3043,43.8172,3,1,0.5114,,2,3,23,3,1,4,R,,3,,,,,,,
,,,,,,,,,,1,Ilan Ladabaum,2023-09-27_15h43.04.417,Motor_Task,2023.2.2,MacIntel,60.0024001,43.8177,44.3512,1,1,0.5323,,2,4,24,4,1,5,I,,1,,,,,,,
,,,,,,,,,,1,Ilan Ladabaum,2023-09-27_15h43.04.417,Motor_Task,2023.2.2,MacIntel,60.0024001,44.3516,44.918,1,1,0.564,,2,5,25,5,1,6,I,,1,,,,,,,
,,,,,,,,,,1,Ilan Ladabaum,2023-09-27_15h43.04.417,Motor_Task,2023.2.2,MacIntel,60.0024001,44.9185,45.6031,3,1,0.6736,,2,6,26,6,1,7,R,,3,,,,,,,
,,,,,,,,,,1,Ilan Ladabaum,2023-09-27_15h43.04.417,Motor_Task,2023.2.2,MacIntel,60.0024001,45.6036,46.1504,2,1,0.5377,,2,7,27,7,1,8,M,,2,,,,,,,
,,,,,,,,,,1,Ilan Ladabaum,2023-09-27_15h43.04.417,Motor_Task,2023.2.2,MacIntel,60.0024001,46.151,46.7343,4,1,0.5773,,2,8,28,8,1,9,L,,4,,,,,,,
,,,,,,,,,,1,Ilan Ladabaum,2023-09-27_15h43.04.417,Motor_Task,2023.2.2,MacIntel,60.0024001,46.7348,47.3012,1,1,0.558,,2,9,29,9,1,10,I,,1,,,,,,,
,,,,,,,,,,1,Ilan Ladabaum,2023-09-27_15h43.04.417,Motor_Task,2023.2.2,MacIntel,60.0024001,47.3017,47.8362,2,1,0.5226,,3,0,30,0,1,1,M,,2,,,,,,,
,,,,,,,,,,1,Ilan Ladabaum,2023-09-27_15h43.04.417,Motor_Task,2023.2.2,MacIntel,60.0024001,47.8367,48.3358,3,1,0.4951,,3,1,31,1,1,2,R,,3,,,,,,,
,,,,,,,,,,1,Ilan Ladabaum,2023-09-27_15h43.04.417,Motor_Task,2023.2.2,MacIntel,60.0024001,48.3362,48.8501,2,1,0.5115,,3,2,32,2,1,3,M,,2,,,,,,,
,,,,,,,,,,1,Ilan Ladabaum,2023-09-27_15h43.04.417,Motor_Task,2023.2.2,MacIntel,60.0024001,48.8507,49.3697,3,1,0.515,,3,3,33,3,1,4,R,,3,,,,,,,
,,,,,,,,,,1,Ilan Ladabaum,2023-09-27_15h43.04.417,Motor_Task,2023.2.2,MacIntel,60.0024001,49.3703,49.9523,1,1,0.5744,,3,4,34,4,1,5,I,,1,,,,,,,
,,,,,,,,,,1,Ilan Ladabaum,2023-09-27_15h43.04.417,Motor_Task,2023.2.2,MacIntel,60.0024001,49.9528,50.5195,1,1,0.5601,,3,5,35,5,1,6,I,,1,,,,,,,
,,,,,,,,,,1,Ilan Ladabaum,2023-09-27_15h43.04.417,Motor_Task,2023.2.2,MacIntel,60.0024001,50.52,51.1334,3,1,0.6053,,3,6,36,6,1,7,R,,3,,,,,,,
,,,,,,,,,,1,Ilan Ladabaum,2023-09-27_15h43.04.417,Motor_Task,2023.2.2,MacIntel,60.0024001,51.1339,51.6526,2,1,0.5069,,3,7,37,7,1,8,M,,2,,,,,,,
,,,,,,,,,,1,Ilan Ladabaum,2023-09-27_15h43.04.417,Motor_Task,2023.2.2,MacIntel,60.0024001,51.6531,52.2004,4,1,0.5404,,3,8,38,8,1,9,L,,4,,,,,,,
,,,,,,,,,,1,Ilan Ladabaum,2023-09-27_15h43.04.417,Motor_Task,2023.2.2,MacIntel,60.0024001,52.2008,52.7354,1,1,0.5302,,3,9,39,9,1,10,I,,1,,,,,,,
,,,,,,,,,,1,Ilan Ladabaum,2023-09-27_15h43.04.417,Motor_Task,2023.2.2,MacIntel,60.0024001,52.7359,53.3503,1,0,0.6124,,4,0,40,0,1,1,M,,2,,,,,,,
,,,,,,,,,,1,Ilan Ladabaum,2023-09-27_15h43.04.417,Motor_Task,2023.2.2,MacIntel,60.0024001,53.3509,54.1334,3,1,0.7739,,4,1,41,1,1,2,R,,3,,,,,,,
,,,,,,,,,,1,Ilan Ladabaum,2023-09-27_15h43.04.417,Motor_Task,2023.2.2,MacIntel,60.0024001,54.134,54.6353,2,1,0.499,,4,2,42,2,1,3,M,,2,,,,,,,
,,,,,,,,,,1,Ilan Ladabaum,2023-09-27_15h43.04.417,Motor_Task,2023.2.2,MacIntel,60.0024001,54.6357,55.1187,3,1,0.4822,,4,3,43,3,1,4,R,,3,,,,,,,
,,,,,,,,,,1,Ilan Ladabaum,2023-09-27_15h43.04.417,Motor_Task,2023.2.2,MacIntel,60.0024001,55.1194,55.6326,1,1,0.5112,,4,4,44,4,1,5,I,,1,,,,,,,
,,,,,,,,,,1,Ilan Ladabaum,2023-09-27_15h43.04.417,Motor_Task,2023.2.2,MacIntel,60.0024001,55.633,56.1855,1,1,0.5425,,4,5,45,5,1,6,I,,1,,,,,,,
,,,,,,,,,,1,Ilan Ladabaum,2023-09-27_15h43.04.417,Motor_Task,2023.2.2,MacIntel,60.0024001,56.1859,56.834,3,1,0.6399,,4,6,46,6,1,7,R,,3,,,,,,,
,,,,,,,,,,1,Ilan Ladabaum,2023-09-27_15h43.04.417,Motor_Task,2023.2.2,MacIntel,60.0024001,56.8345,57.3021,2,1,0.4667,,4,7,47,7,1,8,M,,2,,,,,,,
,,,,,,,,,,1,Ilan Ladabaum,2023-09-27_15h43.04.417,Motor_Task,2023.2.2,MacIntel,60.0024001,57.3026,57.8677,4,1,0.5526,,4,8,48,8,1,9,L,,4,,,,,,,
,,,,,,,,,,1,Ilan Ladabaum,2023-09-27_15h43.04.417,Motor_Task,2023.2.2,MacIntel,60.0024001,57.8687,58.4012,1,1,0.5318,,4,9,49,9,1,10,I,,1,,,,,,,
,,,,,,,,,,1,Ilan Ladabaum,2023-09-27_15h43.04.417,Motor_Task,2023.2.2,MacIntel,60.0024001,58.4018,59.0004,2,1,0.5981,,5,0,50,0,1,1,M,,2,,,,,,,
,,,,,,,,,,1,Ilan Ladabaum,2023-09-27_15h43.04.417,Motor_Task,2023.2.2,MacIntel,60.0024001,59.0009,59.4833,3,1,0.4721,,5,1,51,1,1,2,R,,3,,,,,,,
,,,,,,,,,,1,Ilan Ladabaum,2023-09-27_15h43.04.417,Motor_Task,2023.2.2,MacIntel,60.0024001,59.4839,59.9839,2,1,0.4973,,5,2,52,2,1,3,M,,2,,,,,,,
,,,,,,,,,,1,Ilan Ladabaum,2023-09-27_15h43.04.417,Motor_Task,2023.2.2,MacIntel,60.0024001,59.9845,60.4519,3,1,0.4569,,5,3,53,3,1,4,R,,3,,,,,,,
,,,,,,,,,,1,Ilan Ladabaum,2023-09-27_15h43.04.417,Motor_Task,2023.2.2,MacIntel,60.0024001,60.4525,61.0332,1,1,0.5779,,5,4,54,4,1,5,I,,1,,,,,,,
,,,,,,,,,,1,Ilan Ladabaum,2023-09-27_15h43.04.417,Motor_Task,2023.2.2,MacIntel,60.0024001,61.0338,61.5854,1,1,0.5476,,5,5,55,5,1,6,I,,1,,,,,,,
,,,,,,,,,,1,Ilan Ladabaum,2023-09-27_15h43.04.417,Motor_Task,2023.2.2,MacIntel,60.0024001,61.5858,62.0697,1,0,0.4819,,5,6,56,6,1,7,R,,3,,,,,,,
,,,,,,,,,,1,Ilan Ladabaum,2023-09-27_15h43.04.417,Motor_Task,2023.2.2,MacIntel,60.0024001,62.0701,62.7866,2,1,0.7113,,5,7,57,7,1,8,M,,2,,,,,,,
,,,,,,,,,,1,Ilan Ladabaum,2023-09-27_15h43.04.417,Motor_Task,2023.2.2,MacIntel,60.0024001,62.787,63.5185,4,1,0.7212,,5,8,58,8,1,9,L,,4,,,,,,,
,,,,,,,,,,1,Ilan Ladabaum,2023-09-27_15h43.04.417,Motor_Task,2023.2.2,MacIntel,60.0024001,63.5191,64.1025,1,1,0.5735,,5,9,59,9,1,10,I,,1,,,,,,,
,,,,,,,,,,1,Ilan Ladabaum,2023-09-27_15h43.04.417,Motor_Task,2023.2.2,MacIntel,60.0024001,64.1027,64.6849,1,0,0.5768,,6,0,60,0,1,1,M,,2,,,,,,,
,,,,,,,,,,1,Ilan Ladabaum,2023-09-27_15h43.04.417,Motor_Task,2023.2.2,MacIntel,60.0024001,64.6854,65.4026,3,1,0.7062,,6,1,61,1,1,2,R,,3,,,,,,,
,,,,,,,,,,1,Ilan Ladabaum,2023-09-27_15h43.04.417,Motor_Task,2023.2.2,MacIntel,60.0024001,65.403,65.9519,2,1,0.5362,,6,2,62,2,1,3,M,,2,,,,,,,
,,,,,,,,,,1,Ilan Ladabaum,2023-09-27_15h43.04.417,Motor_Task,2023.2.2,MacIntel,60.0024001,65.9525,66.4501,3,1,0.4874,,6,3,63,3,1,4,R,,3,,,,,,,
,,,,,,,,,,1,Ilan Ladabaum,2023-09-27_15h43.04.417,Motor_Task,2023.2.2,MacIntel,60.0024001,66.4505,66.9843,1,1,0.5314,,6,4,64,4,1,5,I,,1,,,,,,,
,,,,,,,,,,1,Ilan Ladabaum,2023-09-27_15h43.04.417,Motor_Task,2023.2.2,MacIntel,60.0024001,66.9848,67.5531,1,1,0.5545,,6,5,65,5,1,6,I,,1,,,,,,,
,,,,,,,,,,1,Ilan Ladabaum,2023-09-27_15h43.04.417,Motor_Task,2023.2.2,MacIntel,60.0024001,67.5537,68.1002,3,1,0.5386,,6,6,66,6,1,7,R,,3,,,,,,,
,,,,,,,,,,1,Ilan Ladabaum,2023-09-27_15h43.04.417,Motor_Task,2023.2.2,MacIntel,60.0024001,68.1006,68.6185,2,1,0.5065,,6,7,67,7,1,8,M,,2,,,,,,,
,,,,,,,,,,1,Ilan Ladabaum,2023-09-27_15h43.04.417,Motor_Task,2023.2.2,MacIntel,60.0024001,68.6191,69.1853,4,1,0.5544,,6,8,68,8,1,9,L,,4,,,,,,,
,,,,,,,,,,1,Ilan Ladabaum,2023-09-27_15h43.04.417,Motor_Task,2023.2.2,MacIntel,60.0024001,69.1858,69.7511,1,1,0.5555,,6,9,69,9,1,10,I,,1,,,,,,,
,,,,,,,,,,1,Ilan Ladabaum,2023-09-27_15h43.04.417,Motor_Task,2023.2.2,MacIntel,60.0024001,69.7516,70.3514,2,1,0.5902,,7,0,70,0,1,1,M,,2,,,,,,,
,,,,,,,,,,1,Ilan Ladabaum,2023-09-27_15h43.04.417,Motor_Task,2023.2.2,MacIntel,60.0024001,70.3518,70.8675,3,1,0.5098,,7,1,71,1,1,2,R,,3,,,,,,,
,,,,,,,,,,1,Ilan Ladabaum,2023-09-27_15h43.04.417,Motor_Task,2023.2.2,MacIntel,60.0024001,70.8679,71.4193,2,1,0.547,,7,2,72,2,1,3,M,,2,,,,,,,
,,,,,,,,,,1,Ilan Ladabaum,2023-09-27_15h43.04.417,Motor_Task,2023.2.2,MacIntel,60.0024001,71.4195,72.1354,3,1,0.7022,,7,3,73,3,1,4,R,,3,,,,,,,
,,,,,,,,,,1,Ilan Ladabaum,2023-09-27_15h43.04.417,Motor_Task,2023.2.2,MacIntel,60.0024001,72.1358,72.7355,1,1,0.5864,,7,4,74,4,1,5,I,,1,,,,,,,
,,,,,,,,,,1,Ilan Ladabaum,2023-09-27_15h43.04.417,Motor_Task,2023.2.2,MacIntel,60.0024001,72.736,73.284,1,1,0.5424,,7,5,75,5,1,6,I,,1,,,,,,,
,,,,,,,,,,1,Ilan Ladabaum,2023-09-27_15h43.04.417,Motor_Task,2023.2.2,MacIntel,60.0024001,73.2844,73.801,3,1,0.5099,,7,6,76,6,1,7,R,,3,,,,,,,
,,,,,,,,,,1,Ilan Ladabaum,2023-09-27_15h43.04.417,Motor_Task,2023.2.2,MacIntel,60.0024001,73.8014,74.2997,2,1,0.4975,,7,7,77,7,1,8,M,,2,,,,,,,
,,,,,,,,,,1,Ilan Ladabaum,2023-09-27_15h43.04.417,Motor_Task,2023.2.2,MacIntel,60.0024001,74.3003,74.8693,4,1,0.5556,,7,8,78,8,1,9,L,,4,,,,,,,
,,,,,,,,,,1,Ilan Ladabaum,2023-09-27_15h43.04.417,Motor_Task,2023.2.2,MacIntel,60.0024001,74.87,75.3867,1,1,0.5042,,7,9,79,9,1,10,I,,1,,,,,,,
,,,,,,,,,,1,Ilan Ladabaum,2023-09-27_15h43.04.417,Motor_Task,2023.2.2,MacIntel,60.0024001,75.3872,75.9359,2,1,0.5467,,8,0,80,0,1,1,M,,2,,,,,,,
,,,,,,,,,,1,Ilan Ladabaum,2023-09-27_15h43.04.417,Motor_Task,2023.2.2,MacIntel,60.0024001,75.9365,76.4202,3,1,0.4711,,8,1,81,1,1,2,R,,3,,,,,,,
,,,,,,,,,,1,Ilan Ladabaum,2023-09-27_15h43.04.417,Motor_Task,2023.2.2,MacIntel,60.0024001,76.4207,76.9163,2,1,0.4837,,8,2,82,2,1,3,M,,2,,,,,,,
,,,,,,,,,,1,Ilan Ladabaum,2023-09-27_15h43.04.417,Motor_Task,2023.2.2,MacIntel,60.0024001,76.9168,77.4033,3,1,0.4769,,8,3,83,3,1,4,R,,3,,,,,,,
,,,,,,,,,,1,Ilan Ladabaum,2023-09-27_15h43.04.417,Motor_Task,2023.2.2,MacIntel,60.0024001,77.4039,77.969,1,1,0.5637,,8,4,84,4,1,5,I,,1,,,,,,,
,,,,,,,,,,1,Ilan Ladabaum,2023-09-27_15h43.04.417,Motor_Task,2023.2.2,MacIntel,60.0024001,77.9695,78.5201,1,1,0.5459,,8,5,85,5,1,6,I,,1,,,,,,,
,,,,,,,,,,1,Ilan Ladabaum,2023-09-27_15h43.04.417,Motor_Task,2023.2.2,MacIntel,60.0024001,78.5208,79.0833,3,1,0.554,,8,6,86,6,1,7,R,,3,,,,,,,
,,,,,,,,,,1,Ilan Ladabaum,2023-09-27_15h43.04.417,Motor_Task,2023.2.2,MacIntel,60.0024001,79.0839,79.5854,2,1,0.4914,,8,7,87,7,1,8,M,,2,,,,,,,
,,,,,,,,,,1,Ilan Ladabaum,2023-09-27_15h43.04.417,Motor_Task,2023.2.2,MacIntel,60.0024001,79.586,80.1846,4,1,0.5876,,8,8,88,8,1,9,L,,4,,,,,,,
,,,,,,,,,,1,Ilan Ladabaum,2023-09-27_15h43.04.417,Motor_Task,2023.2.2,MacIntel,60.0024001,80.1852,80.6346,1,1,0.4485,,8,9,89,9,1,10,I,,1,,,,,,,
,,,,,,,,,,1,Ilan Ladabaum,2023-09-27_15h43.04.417,Motor_Task,2023.2.2,MacIntel,60.0024001,80.6352,81.1365,2,1,0.4881,,9,0,90,0,1,1,M,,2,,,,,,,
,,,,,,,,,,1,Ilan Ladabaum,2023-09-27_15h43.04.417,Motor_Task,2023.2.2,MacIntel,60.0024001,81.1373,81.6519,3,1,0.5102,,9,1,91,1,1,2,R,,3,,,,,,,
,,,,,,,,,,1,Ilan Ladabaum,2023-09-27_15h43.04.417,Motor_Task,2023.2.2,MacIntel,60.0024001,81.6523,82.1668,2,1,0.5042,,9,2,92,2,1,3,M,,2,,,,,,,
,,,,,,,,,,1,Ilan Ladabaum,2023-09-27_15h43.04.417,Motor_Task,2023.2.2,MacIntel,60.0024001,82.1674,82.6687,3,1,0.4895,,9,3,93,3,1,4,R,,3,,,,,,,
,,,,,,,,,,1,Ilan Ladabaum,2023-09-27_15h43.04.417,Motor_Task,2023.2.2,MacIntel,60.0024001,82.6694,83.2,1,1,0.5219,,9,4,94,4,1,5,I,,1,,,,,,,
,,,,,,,,,,1,Ilan Ladabaum,2023-09-27_15h43.04.417,Motor_Task,2023.2.2,MacIntel,60.0024001,83.2005,83.6849,1,1,0.482,,9,5,95,5,1,6,I,,1,,,,,,,
,,,,,,,,,,1,Ilan Ladabaum,2023-09-27_15h43.04.417,Motor_Task,2023.2.2,MacIntel,60.0024001,83.6854,84.2024,3,1,0.5128,,9,6,96,6,1,7,R,,3,,,,,,,
,,,,,,,,,,1,Ilan Ladabaum,2023-09-27_15h43.04.417,Motor_Task,2023.2.2,MacIntel,60.0024001,84.2028,84.6846,2,1,0.4725,,9,7,97,7,1,8,M,,2,,,,,,,
,,,,,,,,,,1,Ilan Ladabaum,2023-09-27_15h43.04.417,Motor_Task,2023.2.2,MacIntel,60.0024001,84.6851,85.2187,4,1,0.5244,,9,8,98,8,1,9,L,,4,,,,,,,
,,,,,,,,,,1,Ilan Ladabaum,2023-09-27_15h43.04.417,Motor_Task,2023.2.2,MacIntel,60.0024001,85.2192,85.7001,1,1,0.4732,,9,9,99,9,1,10,I,,1,,,,,,,
,,,,,,,,,,1,Ilan Ladabaum,2023-09-27_15h43.04.417,Motor_Task,2023.2.2,MacIntel,60.0024001,85.7006,86.2024,2,1,0.4917,,10,0,100,0,1,1,M,,2,,,,,,,
,,,,,,,,,,1,Ilan Ladabaum,2023-09-27_15h43.04.417,Motor_Task,2023.2.2,MacIntel,60.0024001,86.2028,86.8023,3,1,0.5977,,10,1,101,1,1,2,R,,3,,,,,,,
,,,,,,,,,,1,Ilan Ladabaum,2023-09-27_15h43.04.417,Motor_Task,2023.2.2,MacIntel,60.0024001,86.8025,87.2687,2,1,0.4544,,10,2,102,2,1,3,M,,2,,,,,,,
,,,,,,,,,,1,Ilan Ladabaum,2023-09-27_15h43.04.417,Motor_Task,2023.2.2,MacIntel,60.0024001,87.2691,87.7675,3,1,0.4922,,10,3,103,3,1,4,R,,3,,,,,,,
,,,,,,,,,,1,Ilan Ladabaum,2023-09-27_15h43.04.417,Motor_Task,2023.2.2,MacIntel,60.0024001,87.7679,88.2693,1,1,0.4986,,10,4,104,4,1,5,I,,1,,,,,,,
,,,,,,,,,,1,Ilan Ladabaum,2023-09-27_15h43.04.417,Motor_Task,2023.2.2,MacIntel,60.0024001,88.2696,88.8163,1,1,0.5372,,10,5,105,5,1,6,I,,1,,,,,,,
,,,,,,,,,,1,Ilan Ladabaum,2023-09-27_15h43.04.417,Motor_Task,2023.2.2,MacIntel,60.0024001,88.8166,89.37,3,1,0.5438,,10,6,106,6,1,7,R,,3,,,,,,,
,,,,,,,,,,1,Ilan Ladabaum,2023-09-27_15h43.04.417,Motor_Task,2023.2.2,MacIntel,60.0024001,89.3707,89.8529,2,1,0.4793,,10,7,107,7,1,8,M,,2,,,,,,,
,,,,,,,,,,1,Ilan Ladabaum,2023-09-27_15h43.04.417,Motor_Task,2023.2.2,MacIntel,60.0024001,89.8534,90.5197,4,1,0.6563,,10,8,108,8,1,9,L,,4,,,,,,,
,,,,,,,,,,1,Ilan Ladabaum,2023-09-27_15h43.04.417,Motor_Task,2023.2.2,MacIntel,60.0024001,90.5203,91.0025,1,1,0.4772,,10,9,109,9,1,10,I,,1,,,,,,,
,,,,,,,,,,1,Ilan Ladabaum,2023-09-27_15h43.04.417,Motor_Task,2023.2.2,MacIntel,60.0024001,91.003,91.6867,2,1,0.6734,,11,0,110,0,1,1,M,,2,,,,,,,
,,,,,,,,,,1,Ilan Ladabaum,2023-09-27_15h43.04.417,Motor_Task,2023.2.2,MacIntel,60.0024001,91.6872,92.135,3,1,0.4456,,11,1,111,1,1,2,R,,3,,,,,,,
,,,,,,,,,,1,Ilan Ladabaum,2023-09-27_15h43.04.417,Motor_Task,2023.2.2,MacIntel,60.0024001,92.1358,92.6022,2,1,0.4559,,11,2,112,2,1,3,M,,2,,,,,,,
,,,,,,,,,,1,Ilan Ladabaum,2023-09-27_15h43.04.417,Motor_Task,2023.2.2,MacIntel,60.0024001,92.6024,93.0677,3,1,0.456,,11,3,113,3,1,4,R,,3,,,,,,,
,,,,,,,,,,1,Ilan Ladabaum,2023-09-27_15h43.04.417,Motor_Task,2023.2.2,MacIntel,60.0024001,93.0681,93.567,1,1,0.4917,,11,4,114,4,1,5,I,,1,,,,,,,
,,,,,,,,,,1,Ilan Ladabaum,2023-09-27_15h43.04.417,Motor_Task,2023.2.2,MacIntel,60.0024001,93.5675,94.0678,1,1,0.498,,11,5,115,5,1,6,I,,1,,,,,,,
,,,,,,,,,,1,Ilan Ladabaum,2023-09-27_15h43.04.417,Motor_Task,2023.2.2,MacIntel,60.0024001,94.0683,94.6033,4,0,0.5339,,11,6,116,6,1,7,R,,3,,,,,,,
,,,,,,,,,,1,Ilan Ladabaum,2023-09-27_15h43.04.417,Motor_Task,2023.2.2,MacIntel,60.0024001,94.6036,95.2169,2,1,0.6048,,11,7,117,7,1,8,M,,2,,,,,,,
,,,,,,,,,,1,Ilan Ladabaum,2023-09-27_15h43.04.417,Motor_Task,2023.2.2,MacIntel,60.0024001,95.2174,95.6198,3,0,0.3952,,11,8,118,8,1,9,L,,4,,,,,,,
,,,,,,,,,,1,Ilan Ladabaum,2023-09-27_15h43.04.417,Motor_Task,2023.2.2,MacIntel,60.0024001,95.6204,96.3012,1,1,0.6715,,11,9,119,9,1,10,I,,1,,,,,,,
,,,,,,,,,,1,Ilan Ladabaum,2023-09-27_15h43.04.417,Motor_Task,2023.2.2,MacIntel,60.0024001,96.3017,97.0025,2,1,0.6919,,12,0,120,0,1,1,M,,2,,,,,,,
,,,,,,,,,,1,Ilan Ladabaum,2023-09-27_15h43.04.417,Motor_Task,2023.2.2,MacIntel,60.0024001,97.003,97.5007,3,1,0.4969,,12,1,121,1,1,2,R,,3,,,,,,,
,,,,,,,,,,1,Ilan Ladabaum,2023-09-27_15h43.04.417,Motor_Task,2023.2.2,MacIntel,60.0024001,97.5015,97.9682,2,1,0.4583,,12,2,122,2,1,3,M,,2,,,,,,,
,,,,,,,,,,1,Ilan Ladabaum,2023-09-27_15h43.04.417,Motor_Task,2023.2.2,MacIntel,60.0024001,97.9687,98.4505,3,1,0.4709,,12,3,123,3,1,4,R,,3,,,,,,,
,,,,,,,,,,1,Ilan Ladabaum,2023-09-27_15h43.04.417,Motor_Task,2023.2.2,MacIntel,60.0024001,98.451,99.0364,1,1,0.5834,,12,4,124,4,1,5,I,,1,,,,,,,
,,,,,,,,,,1,Ilan Ladabaum,2023-09-27_15h43.04.417,Motor_Task,2023.2.2,MacIntel,60.0024001,99.0369,99.5028,1,1,0.4609,,12,5,125,5,1,6,I,,1,,,,,,,
,,,,,,,,,,1,Ilan Ladabaum,2023-09-27_15h43.04.417,Motor_Task,2023.2.2,MacIntel,60.0024001,99.5035,100.5023,3,1,0.9857,,12,6,126,6,1,7,R,,3,,,,,,,
,,,,,,,,,,1,Ilan Ladabaum,2023-09-27_15h43.04.417,Motor_Task,2023.2.2,MacIntel,60.0024001,100.5027,100.9683,2,1,0.4645,,12,7,127,7,1,8,M,,2,,,,,,,
,,,,,,,,,,1,Ilan Ladabaum,2023-09-27_15h43.04.417,Motor_Task,2023.2.2,MacIntel,60.0024001,100.9686,101.6512,4,1,0.6746,,12,8,128,8,1,9,L,,4,,,,,,,
,,,,,,,,,,1,Ilan Ladabaum,2023-09-27_15h43.04.417,Motor_Task,2023.2.2,MacIntel,60.0024001,101.652,101.7347,4,0,0.0824,,12,9,129,9,1,10,I,,1,,,,,,,
,,,,,,,,,,1,Ilan Ladabaum,2023-09-27_15h43.04.417,Motor_Task,2023.2.2,MacIntel,60.0024001,101.7352,102.3673,2,1,0.6199,,13,0,130,0,1,1,M,,2,,,,,,,
,,,,,,,,,,1,Ilan Ladabaum,2023-09-27_15h43.04.417,Motor_Task,2023.2.2,MacIntel,60.0024001,102.3678,102.819,3,1,0.4484,,13,1,131,1,1,2,R,,3,,,,,,,
,,,,,,,,,,1,Ilan Ladabaum,2023-09-27_15h43.04.417,Motor_Task,2023.2.2,MacIntel,60.0024001,102.8195,103.2529,2,1,0.4192,,13,2,132,2,1,3,M,,2,,,,,,,
,,,,,,,,,,1,Ilan Ladabaum,2023-09-27_15h43.04.417,Motor_Task,2023.2.2,MacIntel,60.0024001,103.2533,103.8863,3,1,0.6188,,13,3,133,3,1,4,R,,3,,,,,,,
,,,,,,,,,,1,Ilan Ladabaum,2023-09-27_15h43.04.417,Motor_Task,2023.2.2,MacIntel,60.0024001,103.8868,104.5183,1,1,0.6203,,13,4,134,4,1,5,I,,1,,,,,,,
,,,,,,,,,,1,Ilan Ladabaum,2023-09-27_15h43.04.417,Motor_Task,2023.2.2,MacIntel,60.0024001,104.5187,105.1007,1,1,0.5795,,13,5,135,5,1,6,I,,1,,,,,,,
,,,,,,,,,,1,Ilan Ladabaum,2023-09-27_15h43.04.417,Motor_Task,2023.2.2,MacIntel,60.0024001,105.1012,105.6525,3,1,0.5479,,13,6,136,6,1,7,R,,3,,,,,,,
,,,,,,,,,,1,Ilan Ladabaum,2023-09-27_15h43.04.417,Motor_Task,2023.2.2,MacIntel,60.0024001,105.6536,106.1363,2,1,0.4704,,13,7,137,7,1,8,M,,2,,,,,,,
,,,,,,,,,,1,Ilan Ladabaum,2023-09-27_15h43.04.417,Motor_Task,2023.2.2,MacIntel,60.0024001,106.1368,106.6686,3,0,0.5198,,13,8,138,8,1,9,L,,4,,,,,,,
,,,,,,,,,,1,Ilan Ladabaum,2023-09-27_15h43.04.417,Motor_Task,2023.2.2,MacIntel,60.0024001,106.6691,107.3016,1,1,0.6235,,13,9,139,9,1,10,I,,1,,,,,,,
,,,,,,,,,,1,Ilan Ladabaum,2023-09-27_15h43.04.417,Motor_Task,2023.2.2,MacIntel,60.0024001,107.3022,107.7869,3,0,0.4796,,14,0,140,0,1,1,M,,2,,,,,,,
,,,,,,,,,,1,Ilan Ladabaum,2023-09-27_15h43.04.417,Motor_Task,2023.2.2,MacIntel,60.0024001,107.7876,108.387,2,0,0.5838,,14,1,141,1,1,2,R,,3,,,,,,,
,,,,,,,,,,1,Ilan Ladabaum,2023-09-27_15h43.04.417,Motor_Task,2023.2.2,MacIntel,60.0024001,108.3875,109.1669,2,1,0.7713,,14,2,142,2,1,3,M,,2,,,,,,,
,,,,,,,,,,1,Ilan Ladabaum,2023-09-27_15h43.04.417,Motor_Task,2023.2.2,MacIntel,60.0024001,109.1674,109.7012,3,1,0.5228,,14,3,143,3,1,4,R,,3,,,,,,,
,,,,,,,,,,1,Ilan Ladabaum,2023-09-27_15h43.04.417,Motor_Task,2023.2.2,MacIntel,60.0024001,109.7015,110.2689,1,1,0.5571,,14,4,144,4,1,5,I,,1,,,,,,,
,,,,,,,,,,1,Ilan Ladabaum,2023-09-27_15h43.04.417,Motor_Task,2023.2.2,MacIntel,60.0024001,110.2697,110.8199,1,1,0.5391,,14,5,145,5,1,6,I,,1,,,,,,,
,,,,,,,,,,1,Ilan Ladabaum,2023-09-27_15h43.04.417,Motor_Task,2023.2.2,MacIntel,60.0024001,110.8205,111.4839,3,1,0.6564,,14,6,146,6,1,7,R,,3,,,,,,,
,,,,,,,,,,1,Ilan Ladabaum,2023-09-27_15h43.04.417,Motor_Task,2023.2.2,MacIntel,60.0024001,111.4844,111.9845,2,1,0.4907,,14,7,147,7,1,8,M,,2,,,,,,,
,,,,,,,,,,1,Ilan Ladabaum,2023-09-27_15h43.04.417,Motor_Task,2023.2.2,MacIntel,60.0024001,111.9851,112.5016,4,1,0.5122,,14,8,148,8,1,9,L,,4,,,,,,,
,,,,,,,,,,1,Ilan Ladabaum,2023-09-27_15h43.04.417,Motor_Task,2023.2.2,MacIntel,60.0024001,112.5023,112.987,1,1,0.4722,,14,9,149,9,1,10,I,,1,,,,,,,
,,,,,,,,,,1,Ilan Ladabaum,2023-09-27_15h43.04.417,Motor_Task,2023.2.2,MacIntel,60.0024001,112.9877,113.5677,3,0,0.5782,,15,0,150,0,1,1,M,,2,,,,,,,
,,,,,,,,,,1,Ilan Ladabaum,2023-09-27_15h43.04.417,Motor_Task,2023.2.2,MacIntel,60.0024001,113.5683,114.135,3,1,0.5622,,15,1,151,1,1,2,R,,3,,,,,,,
,,,,,,,,,,1,Ilan Ladabaum,2023-09-27_15h43.04.417,Motor_Task,2023.2.2,MacIntel,60.0024001,114.1355,114.7191,2,1,0.5703,,15,2,152,2,1,3,M,,2,,,,,,,
,,,,,,,,,,1,Ilan Ladabaum,2023-09-27_15h43.04.417,Motor_Task,2023.2.2,MacIntel,60.0024001,114.7197,115.2519,3,1,0.5223,,15,3,153,3,1,4,R,,3,,,,,,,
,,,,,,,,,,1,Ilan Ladabaum,2023-09-27_15h43.04.417,Motor_Task,2023.2.2,MacIntel,60.0024001,115.2523,115.7698,1,1,0.5031,,15,4,154,4,1,5,I,,1,,,,,,,
,,,,,,,,,,1,Ilan Ladabaum,2023-09-27_15h43.04.417,Motor_Task,2023.2.2,MacIntel,60.0024001,115.7703,116.3535,1,1,0.5771,,15,5,155,5,1,6,I,,1,,,,,,,
,,,,,,,,,,1,Ilan Ladabaum,2023-09-27_15h43.04.417,Motor_Task,2023.2.2,MacIntel,60.0024001,116.354,116.9866,3,1,0.6197,,15,6,156,6,1,7,R,,3,,,,,,,
,,,,,,,,,,1,Ilan Ladabaum,2023-09-27_15h43.04.417,Motor_Task,2023.2.2,MacIntel,60.0024001,116.9873,117.5028,2,1,0.5015,,15,7,157,7,1,8,M,,2,,,,,,,
,,,,,,,,,,1,Ilan Ladabaum,2023-09-27_15h43.04.417,Motor_Task,2023.2.2,MacIntel,60.0024001,117.5032,118.0673,4,1,0.5618,,15,8,158,8,1,9,L,,4,,,,,,,
,,,,,,,,,,1,Ilan Ladabaum,2023-09-27_15h43.04.417,Motor_Task,2023.2.2,MacIntel,60.0024001,118.0677,118.5865,1,1,0.5182,,15,9,159,9,1,10,I,,1,,,,,,,
,,,,,,,,,,1,Ilan Ladabaum,2023-09-27_15h43.04.417,Motor_Task,2023.2.2,MacIntel,60.0024001,118.5873,119.2001,2,1,0.611,,16,0,160,0,1,1,M,,2,,,,,,,
,,,,,,,,,,1,Ilan Ladabaum,2023-09-27_15h43.04.417,Motor_Task,2023.2.2,MacIntel,60.0024001,119.2005,119.6693,3,1,0.4644,,16,1,161,1,1,2,R,,3,,,,,,,
,,,,,,,,,,1,Ilan Ladabaum,2023-09-27_15h43.04.417,Motor_Task,2023.2.2,MacIntel,60.0024001,119.67,120.2037,2,1,0.5215,,16,2,162,2,1,3,M,,2,,,,,,,
,,,,,,,,,,1,Ilan Ladabaum,2023-09-27_15h43.04.417,Motor_Task,2023.2.2,MacIntel,60.0024001,120.2041,120.7343,3,1,0.5204,,16,3,163,3,1,4,R,,3,,,,,,,
,,,,,,,,,,1,Ilan Ladabaum,2023-09-27_15h43.04.417,Motor_Task,2023.2.2,MacIntel,60.0024001,120.7349,121.2687,1,1,0.5231,,16,4,164,4,1,5,I,,1,,,,,,,
,,,,,,,,,,1,Ilan Ladabaum,2023-09-27_15h43.04.417,Motor_Task,2023.2.2,MacIntel,60.0024001,121.2692,121.8189,1,1,0.5442,,16,5,165,5,1,6,I,,1,,,,,,,
,,,,,,,,,,1,Ilan Ladabaum,2023-09-27_15h43.04.417,Motor_Task,2023.2.2,MacIntel,60.0024001,121.8194,122.4198,3,1,0.5873,,16,6,166,6,1,7,R,,3,,,,,,,
,,,,,,,,,,1,Ilan Ladabaum,2023-09-27_15h43.04.417,Motor_Task,2023.2.2,MacIntel,60.0024001,122.4204,122.8684,2,1,0.4393,,16,7,167,7,1,8,M,,2,,,,,,,
,,,,,,,,,,1,Ilan Ladabaum,2023-09-27_15h43.04.417,Motor_Task,2023.2.2,MacIntel,60.0024001,122.8689,123.4868,4,1,0.6132,,16,8,168,8,1,9,L,,4,,,,,,,
,,,,,,,,,,1,Ilan Ladabaum,2023-09-27_15h43.04.417,Motor_Task,2023.2.2,MacIntel,60.0024001,123.4872,123.9843,1,1,0.4894,,16,9,169,9,1,10,I,,1,,,,,,,
,,,,,,,,,,1,Ilan Ladabaum,2023-09-27_15h43.04.417,Motor_Task,2023.2.2,MacIntel,60.0024001,123.9848,124.5022,2,1,0.5075,,17,0,170,0,1,1,M,,2,,,,,,,
,,,,,,,,,,1,Ilan Ladabaum,2023-09-27_15h43.04.417,Motor_Task,2023.2.2,MacIntel,60.0024001,124.5028,124.9681,3,1,0.4633,,17,1,171,1,1,2,R,,3,,,,,,,
,,,,,,,,,,1,Ilan Ladabaum,2023-09-27_15h43.04.417,Motor_Task,2023.2.2,MacIntel,60.0024001,124.9686,125.4522,2,1,0.4799,,17,2,172,2,1,3,M,,2,,,,,,,
,,,,,,,,,,1,Ilan Ladabaum,2023-09-27_15h43.04.417,Motor_Task,2023.2.2,MacIntel,60.0024001,125.4526,125.9694,3,1,0.5129,,17,3,173,3,1,4,R,,3,,,,,,,
,,,,,,,,,,1,Ilan Ladabaum,2023-09-27_15h43.04.417,Motor_Task,2023.2.2,MacIntel,60.0024001,125.9698,126.5335,1,1,0.556,,17,4,174,4,1,5,I,,1,,,,,,,
,,,,,,,,,,1,Ilan Ladabaum,2023-09-27_15h43.04.417,Motor_Task,2023.2.2,MacIntel,60.0024001,126.5339,127.0507,1,1,0.5088,,17,5,175,5,1,6,I,,1,,,,,,,
,,,,,,,,,,1,Ilan Ladabaum,2023-09-27_15h43.04.417,Motor_Task,2023.2.2,MacIntel,60.0024001,127.0512,127.6036,3,1,0.5514,,17,6,176,6,1,7,R,,3,,,,,,,
,,,,,,,,,,1,Ilan Ladabaum,2023-09-27_15h43.04.417,Motor_Task,2023.2.2,MacIntel,60.0024001,127.6043,128.0855,2,1,0.4767,,17,7,177,7,1,8,M,,2,,,,,,,
,,,,,,,,,,1,Ilan Ladabaum,2023-09-27_15h43.04.417,Motor_Task,2023.2.2,MacIntel,60.0024001,128.086,128.5356,3,0,0.4458,,17,8,178,8,1,9,L,,4,,,,,,,
,,,,,,,,,,1,Ilan Ladabaum,2023-09-27_15h43.04.417,Motor_Task,2023.2.2,MacIntel,60.0024001,128.5361,129.2365,1,1,0.6908,,17,9,179,9,1,10,I,,1,,,,,,,
,,,,,,,,,,1,Ilan Ladabaum,2023-09-27_15h43.04.417,Motor_Task,2023.2.2,MacIntel,60.0024001,129.2371,129.7346,2,1,0.4877,,18,0,180,0,1,1,M,,2,,,,,,,
,,,,,,,,,,1,Ilan Ladabaum,2023-09-27_15h43.04.417,Motor_Task,2023.2.2,MacIntel,60.0024001,129.7351,130.2182,3,1,0.4728,,18,1,181,1,1,2,R,,3,,,,,,,
,,,,,,,,,,1,Ilan Ladabaum,2023-09-27_15h43.04.417,Motor_Task,2023.2.2,MacIntel,60.0024001,130.219,130.7191,2,1,0.4965,,18,2,182,2,1,3,M,,2,,,,,,,
,,,,,,,,,,1,Ilan Ladabaum,2023-09-27_15h43.04.417,Motor_Task,2023.2.2,MacIntel,60.0024001,130.7196,131.1699,3,1,0.4401,,18,3,183,3,1,4,R,,3,,,,,,,
,,,,,,,,,,1,Ilan Ladabaum,2023-09-27_15h43.04.417,Motor_Task,2023.2.2,MacIntel,60.0024001,131.1703,131.735,1,1,0.5557,,18,4,184,4,1,5,I,,1,,,,,,,
,,,,,,,,,,1,Ilan Ladabaum,2023-09-27_15h43.04.417,Motor_Task,2023.2.2,MacIntel,60.0024001,131.7354,132.1523,1,1,0.4138,,18,5,185,5,1,6,I,,1,,,,,,,
,,,,,,,,,,1,Ilan Ladabaum,2023-09-27_15h43.04.417,Motor_Task,2023.2.2,MacIntel,60.0024001,132.1527,132.7531,3,1,0.5851,,18,6,186,6,1,7,R,,3,,,,,,,
,,,,,,,,,,1,Ilan Ladabaum,2023-09-27_15h43.04.417,Motor_Task,2023.2.2,MacIntel,60.0024001,132.7536,133.2171,2,1,0.4613,,18,7,187,7,1,8,M,,2,,,,,,,
,,,,,,,,,,1,Ilan Ladabaum,2023-09-27_15h43.04.417,Motor_Task,2023.2.2,MacIntel,60.0024001,133.2175,133.7863,4,1,0.5641,,18,8,188,8,1,9,L,,4,,,,,,,
,,,,,,,,,,1,Ilan Ladabaum,2023-09-27_15h43.04.417,Motor_Task,2023.2.2,MacIntel,60.0024001,133.7867,134.2704,1,1,0.4781,,18,9,189,9,1,10,I,,1,,,,,,,
,,,,,,,,,,1,Ilan Ladabaum,2023-09-27_15h43.04.417,Motor_Task,2023.2.2,MacIntel,60.0024001,134.2712,134.7707,2,1,0.499,,19,0,190,0,1,1,M,,2,,,,,,,
,,,,,,,,,,1,Ilan Ladabaum,2023-09-27_15h43.04.417,Motor_Task,2023.2.2,MacIntel,60.0024001,134.7712,135.2014,3,1,0.4276,,19,1,191,1,1,2,R,,3,,,,,,,
,,,,,,,,,,1,Ilan Ladabaum,2023-09-27_15h43.04.417,Motor_Task,2023.2.2,MacIntel,60.0024001,135.2019,135.7345,2,1,0.5252,,19,2,192,2,1,3,M,,2,,,,,,,
,,,,,,,,,,1,Ilan Ladabaum,2023-09-27_15h43.04.417,Motor_Task,2023.2.2,MacIntel,60.0024001,135.735,136.0852,3,1,0.3465,,19,3,193,3,1,4,R,,3,,,,,,,
,,,,,,,,,,1,Ilan Ladabaum,2023-09-27_15h43.04.417,Motor_Task,2023.2.2,MacIntel,60.0024001,136.0856,136.5532,1,1,0.4632,,19,4,194,4,1,5,I,,1,,,,,,,
,,,,,,,,,,1,Ilan Ladabaum,2023-09-27_15h43.04.417,Motor_Task,2023.2.2,MacIntel,60.0024001,136.5535,137.12,1,1,0.556,,19,5,195,5,1,6,I,,1,,,,,,,
,,,,,,,,,,1,Ilan Ladabaum,2023-09-27_15h43.04.417,Motor_Task,2023.2.2,MacIntel,60.0024001,137.1206,137.6335,3,1,0.5125,,19,6,196,6,1,7,R,,3,,,,,,,
,,,,,,,,,,1,Ilan Ladabaum,2023-09-27_15h43.04.417,Motor_Task,2023.2.2,MacIntel,60.0024001,137.634,138.0829,2,1,0.4451,,19,7,197,7,1,8,M,,2,,,,,,,
,,,,,,,,,,1,Ilan Ladabaum,2023-09-27_15h43.04.417,Motor_Task,2023.2.2,MacIntel,60.0024001,138.0834,138.6687,4,1,0.5789,,19,8,198,8,1,9,L,,4,,,,,,,
,,,,,,,,,,1,Ilan Ladabaum,2023-09-27_15h43.04.417,Motor_Task,2023.2.2,MacIntel,60.0024001,138.6693,139.185,1,1,0.5058,,19,9,199,9,1,10,I,,1,,,,,,,
,,,,,,,,,,1,Ilan Ladabaum,2023-09-27_15h43.04.417,Motor_Task,2023.2.2,MacIntel,60.0024001,139.1959,139.8175,2,1,0.6106,,,,,,,1,M,,2,0,0,0,0,1,,
,,,,,,,,,,1,Ilan Ladabaum,2023-09-27_15h43.04.417,Motor_Task,2023.2.2,MacIntel,60.0024001,139.8187,140.4033,1,1,0.5798,,,,,,,10,I,,1,0,1,1,9,1,,
,,,,,,,,,,1,Ilan Ladabaum,2023-09-27_15h43.04.417,Motor_Task,2023.2.2,MacIntel,60.0024001,140.4039,140.9681,2,1,0.5564,,,,,,,8,M,,2,0,2,2,7,1,,
,,,,,,,,,,1,Ilan Ladabaum,2023-09-27_15h43.04.417,Motor_Task,2023.2.2,MacIntel,60.0024001,140.9685,141.4836,1,1,0.5064,,,,,,,6,I,,1,0,3,3,5,1,,
,,,,,,,,,,1,Ilan Ladabaum,2023-09-27_15h43.04.417,Motor_Task,2023.2.2,MacIntel,60.0024001,141.4841,141.9693,2,1,0.4831,,,,,,,3,M,,2,0,4,4,2,1,,
,,,,,,,,,,1,Ilan Ladabaum,2023-09-27_15h43.04.417,Motor_Task,2023.2.2,MacIntel,60.0024001,141.9698,142.386,1,0,0.4108,,,,,,,2,R,,3,0,5,5,1,1,,
,,,,,,,,,,1,Ilan Ladabaum,2023-09-27_15h43.04.417,Motor_Task,2023.2.2,MacIntel,60.0024001,142.3866,143.0525,3,1,0.6603,,,,,,,4,R,,3,0,6,6,3,1,,
,,,,,,,,,,1,Ilan Ladabaum,2023-09-27_15h43.04.417,Motor_Task,2023.2.2,MacIntel,60.0024001,143.0529,144.2184,1,1,1.1561,,,,,,,5,I,,1,0,7,7,4,1,,
,,,,,,,,,,1,Ilan Ladabaum,2023-09-27_15h43.04.417,Motor_Task,2023.2.2,MacIntel,60.0024001,144.2188,144.7502,2,0,0.5207,,,,,,,7,R,,3,0,8,8,6,1,,
,,,,,,,,,,1,Ilan Ladabaum,2023-09-27_15h43.04.417,Motor_Task,2023.2.2,MacIntel,60.0024001,144.7509,145.6855,4,1,0.9243,,,,,,,9,L,,4,0,9,9,8,1,,
,,,,,,,,,,1,Ilan Ladabaum,2023-09-27_15h43.04.417,Motor_Task,2023.2.2,MacIntel,60.0024001,145.6862,146.2668,2,1,0.5754,,,,,,,8,M,,2,1,0,10,7,1,,
,,,,,,,,,,1,Ilan Ladabaum,2023-09-27_15h43.04.417,Motor_Task,2023.2.2,MacIntel,60.0024001,146.2671,146.7508,3,1,0.472,,,,,,,7,R,,3,1,1,11,6,1,,
,,,,,,,,,,1,Ilan Ladabaum,2023-09-27_15h43.04.417,Motor_Task,2023.2.2,MacIntel,60.0024001,146.7511,147.3365,2,1,0.5751,,,,,,,1,M,,2,1,2,12,0,1,,
,,,,,,,,,,1,Ilan Ladabaum,2023-09-27_15h43.04.417,Motor_Task,2023.2.2,MacIntel,60.0024001,147.337,147.9524,1,1,0.6031,,,,,,,10,I,,1,1,3,13,9,1,,
,,,,,,,,,,1,Ilan Ladabaum,2023-09-27_15h43.04.417,Motor_Task,2023.2.2,MacIntel,60.0024001,147.9525,148.5,2,1,0.5446,,,,,,,3,M,,2,1,4,14,2,1,,
,,,,,,,,,,1,Ilan Ladabaum,2023-09-27_15h43.04.417,Motor_Task,2023.2.2,MacIntel,60.0024001,148.5004,149.0177,3,1,0.5083,,,,,,,2,R,,3,1,5,15,1,1,,
,,,,,,,,,,1,Ilan Ladabaum,2023-09-27_15h43.04.417,Motor_Task,2023.2.2,MacIntel,60.0024001,149.0182,149.6518,4,1,0.6232,,,,,,,9,L,,4,1,6,16,8,1,,
,,,,,,,,,,1,Ilan Ladabaum,2023-09-27_15h43.04.417,Motor_Task,2023.2.2,MacIntel,60.0024001,149.6523,150.2032,1,1,0.5462,,,,,,,6,I,,1,1,7,17,5,1,,
,,,,,,,,,,1,Ilan Ladabaum,2023-09-27_15h43.04.417,Motor_Task,2023.2.2,MacIntel,60.0024001,150.2036,150.5698,2,0,0.3525,,,,,,,5,I,,1,1,8,18,4,1,,
,,,,,,,,,,1,Ilan Ladabaum,2023-09-27_15h43.04.417,Motor_Task,2023.2.2,MacIntel,60.0024001,150.5703,151.4692,3,1,0.888,,,,,,,4,R,,3,1,9,19,3,1,,
,,,,,,,,,,1,Ilan Ladabaum,2023-09-27_15h43.04.417,Motor_Task,2023.2.2,MacIntel,60.0024001,151.4698,152.1183,1,1,0.6432,,,,,,,5,I,,1,2,0,20,4,1,,
,,,,,,,,,,1,Ilan Ladabaum,2023-09-27_15h43.04.417,Motor_Task,2023.2.2,MacIntel,60.0024001,152.1189,152.7196,3,1,0.5907,,,,,,,7,R,,3,2,1,21,6,1,,
,,,,,,,,,,1,Ilan Ladabaum,2023-09-27_15h43.04.417,Motor_Task,2023.2.2,MacIntel,60.0024001,152.7201,153.4012,2,1,0.6772,,,,,,,1,M,,2,2,2,22,0,1,,
,,,,,,,,,,1,Ilan Ladabaum,2023-09-27_15h43.04.417,Motor_Task,2023.2.2,MacIntel,60.0024001,153.4019,153.9523,2,1,0.5479,,,,,,,3,M,,2,2,3,23,2,1,,
,,,,,,,,,,1,Ilan Ladabaum,2023-09-27_15h43.04.417,Motor_Task,2023.2.2,MacIntel,60.0024001,153.9527,154.5032,2,1,0.5377,,,,,,,8,M,,2,2,4,24,7,1,,
,,,,,,,,,,1,Ilan Ladabaum,2023-09-27_15h43.04.417,Motor_Task,2023.2.2,MacIntel,60.0024001,154.5037,155.22,3,1,0.7019,,,,,,,2,R,,3,2,5,25,1,1,,
,,,,,,,,,,1,Ilan Ladabaum,2023-09-27_15h43.04.417,Motor_Task,2023.2.2,MacIntel,60.0024001,155.2207,155.8858,1,1,0.6521,,,,,,,10,I,,1,2,6,26,9,1,,
,,,,,,,,,,1,Ilan Ladabaum,2023-09-27_15h43.04.417,Motor_Task,2023.2.2,MacIntel,60.0024001,155.8864,156.4002,1,1,0.5124,,,,,,,6,I,,1,2,7,27,5,1,,
,,,,,,,,,,1,Ilan Ladabaum,2023-09-27_15h43.04.417,Motor_Task,2023.2.2,MacIntel,60.0024001,156.4008,157.0518,4,1,0.6394,,,,,,,9,L,,4,2,8,28,8,1,,
,,,,,,,,,,1,Ilan Ladabaum,2023-09-27_15h43.04.417,Motor_Task,2023.2.2,MacIntel,60.0024001,157.0524,157.6349,3,1,0.5711,,,,,,,4,R,,3,2,9,29,3,1,,
,,,,,,,,,,1,Ilan Ladabaum,2023-09-27_15h43.04.417,Motor_Task,2023.2.2,MacIntel,60.0024001,157.6354,158.1368,2,1,0.4974,,,,,,,3,M,,2,3,0,30,2,1,,
,,,,,,,,,,1,Ilan Ladabaum,2023-09-27_15h43.04.417,Motor_Task,2023.2.2,MacIntel,60.0024001,158.1374,158.636,3,1,0.4938,,,,,,,7,R,,3,3,1,31,6,1,,
,,,,,,,,,,1,Ilan Ladabaum,2023-09-27_15h43.04.417,Motor_Task,2023.2.2,MacIntel,60.0024001,158.6365,159.203,1,1,0.5533,,,,,,,6,I,,1,3,2,32,5,1,,
,,,,,,,,,,1,Ilan Ladabaum,2023-09-27_15h43.04.417,Motor_Task,2023.2.2,MacIntel,60.0024001,159.2038,159.7503,3,1,0.5459,,,,,,,4,R,,3,3,3,33,3,1,,
,,,,,,,,,,1,Ilan Ladabaum,2023-09-27_15h43.04.417,Motor_Task,2023.2.2,MacIntel,60.0024001,159.7509,160.3358,3,1,0.5789,,,,,,,2,R,,3,3,4,34,1,1,,
,,,,,,,,,,1,Ilan Ladabaum,2023-09-27_15h43.04.417,Motor_Task,2023.2.2,MacIntel,60.0024001,160.3364,160.9167,2,1,0.5706,,,,,,,8,M,,2,3,5,35,7,1,,
,,,,,,,,,,1,Ilan Ladabaum,2023-09-27_15h43.04.417,Motor_Task,2023.2.2,MacIntel,60.0024001,160.9172,161.5185,4,1,0.5912,,,,,,,9,L,,4,3,6,36,8,1,,
,,,,,,,,,,1,Ilan Ladabaum,2023-09-27_15h43.04.417,Motor_Task,2023.2.2,MacIntel,60.0024001,161.519,162.1343,2,1,0.6134,,,,,,,1,M,,2,3,7,37,0,1,,
,,,,,,,,,,1,Ilan Ladabaum,2023-09-27_15h43.04.417,Motor_Task,2023.2.2,MacIntel,60.0024001,162.1348,162.6857,1,1,0.549,,,,,,,5,I,,1,3,8,38,4,1,,
,,,,,,,,,,1,Ilan Ladabaum,2023-09-27_15h43.04.417,Motor_Task,2023.2.2,MacIntel,60.0024001,162.6861,163.2537,1,1,0.5555,,,,,,,10,I,,1,3,9,39,9,1,,
,,,,,,,,,,1,Ilan Ladabaum,2023-09-27_15h43.04.417,Motor_Task,2023.2.2,MacIntel,60.0024001,163.2546,163.7865,1,1,0.5285,,,,,,,6,I,,1,4,0,40,5,1,,
,,,,,,,,,,1,Ilan Ladabaum,2023-09-27_15h43.04.417,Motor_Task,2023.2.2,MacIntel,60.0024001,163.7871,164.4349,2,1,0.6397,,,,,,,3,M,,2,4,1,41,2,1,,
,,,,,,,,,,1,Ilan Ladabaum,2023-09-27_15h43.04.417,Motor_Task,2023.2.2,MacIntel,60.0024001,164.4355,165.1672,4,1,0.722,,,,,,,9,L,,4,4,2,42,8,1,,
,,,,,,,,,,1,Ilan Ladabaum,2023-09-27_15h43.04.417,Motor_Task,2023.2.2,MacIntel,60.0024001,165.1679,165.7865,2,1,0.609,,,,,,,8,M,,2,4,3,43,7,1,,
,,,,,,,,,,1,Ilan Ladabaum,2023-09-27_15h43.04.417,Motor_Task,2023.2.2,MacIntel,60.0024001,165.7869,166.3519,3,1,0.5552,,,,,,,4,R,,3,4,4,44,3,1,,
,,,,,,,,,,1,Ilan Ladabaum,2023-09-27_15h43.04.417,Motor_Task,2023.2.2,MacIntel,60.0024001,166.3526,166.9344,3,1,0.58,,,,,,,7,R,,3,4,5,45,6,1,,
,,,,,,,,,,1,Ilan Ladabaum,2023-09-27_15h43.04.417,Motor_Task,2023.2.2,MacIntel,60.0024001,166.9348,167.517,1,1,0.5798,,,,,,,5,I,,1,4,6,46,4,1,,
,,,,,,,,,,1,Ilan Ladabaum,2023-09-27_15h43.04.417,Motor_Task,2023.2.2,MacIntel,60.0024001,167.5175,168.1668,3,1,0.6387,,,,,,,2,R,,3,4,7,47,1,1,,
,,,,,,,,,,1,Ilan Ladabaum,2023-09-27_15h43.04.417,Motor_Task,2023.2.2,MacIntel,60.0024001,168.1672,168.72,2,1,0.5511,,,,,,,1,M,,2,4,8,48,0,1,,
,,,,,,,,,,1,Ilan Ladabaum,2023-09-27_15h43.04.417,Motor_Task,2023.2.2,MacIntel,60.0024001,168.7207,169.3531,1,1,0.6265,,,,,,,10,I,,1,4,9,49,9,1,,
,,,,,,,,,,1,Ilan Ladabaum,2023-09-27_15h43.04.417,Motor_Task,2023.2.2,MacIntel,60.0024001,,,,,,,,,,,,,,,,,,,,,169.3537,173.3509