Trigger.started,Trigger.stopped,key_resp_4.keys,key_resp_4.rt,key_resp_4.duration,mouse.x,mouse.y,mouse.leftButton,mouse.midButton,mouse.rightButton,Session,Subject,date,expName,psychopyVersion,OS,frameRate,complex_block.started,complex_block.stopped,key_resp.keys,key_resp.corr,key_resp.rt,key_resp.duration,complex_block_loop.thisRepN,complex_block_loop.thisTrialN,complex_block_loop.thisN,complex_block_loop.thisIndex,complex_block_loop.ran,trial,finger,markerPos,correctResp,new_block_loop.thisRepN,new_block_loop.thisTrialN,new_block_loop.thisN,new_block_loop.thisIndex,new_block_loop.ran,endBuffer.started,endBuffer.stopped
0.0001,5.2393,1,5.2255,,-0.16224949,-0.328859545,0,0,0,1,JDY,2023-09-24_10h08.29.593,Motor_Task,2023.2.2,MacIntel,60.0024001,,,,,,,,,,,,,,,,,,,,,,
,,,,,,,,,,1,JDY,2023-09-24_10h08.29.593,Motor_Task,2023.2.2,MacIntel,60.0024001,5.2615,5.9902,2,1,0.7182,,0,0,0,0,1,1,M,,2,,,,,,,
,,,,,,,,,,1,JDY,2023-09-24_10h08.29.593,Motor_Task,2023.2.2,MacIntel,60.0024001,5.991,6.823,3,1,0.8301,,0,1,1,1,1,2,R,,3,,,,,,,
,,,,,,,,,,1,JDY,2023-09-24_10h08.29.593,Motor_Task,2023.2.2,MacIntel,60.0024001,6.8236,7.3713,2,1,0.5429,,0,2,2,2,1,3,M,,2,,,,,,,
,,,,,,,,,,1,JDY,2023-09-24_10h08.29.593,Motor_Task,2023.2.2,MacIntel,60.0024001,7.372,7.8578,3,1,0.4744,,0,3,3,3,1,4,R,,3,,,,,,,
,,,,,,,,,,1,JDY,2023-09-24_10h08.29.593,Motor_Task,2023.2.2,MacIntel,60.0024001,7.86,8.4214,1,1,0.5591,,0,4,4,4,1,5,I,,1,,,,,,,
,,,,,,,,,,1,JDY,2023-09-24_10h08.29.593,Motor_Task,2023.2.2,MacIntel,60.0024001,8.4218,9.1062,1,1,0.6722,,0,5,5,5,1,6,I,,1,,,,,,,
,,,,,,,,,,1,JDY,2023-09-24_10h08.29.593,Motor_Task,2023.2.2,MacIntel,60.0024001,9.1068,9.6404,3,1,0.5237,,0,6,6,6,1,7,R,,3,,,,,,,
,,,,,,,,,,1,JDY,2023-09-24_10h08.29.593,Motor_Task,2023.2.2,MacIntel,60.0024001,9.641,10.2057,2,1,0.5539,,0,7,7,7,1,8,M,,2,,,,,,,
,,,,,,,,,,1,JDY,2023-09-24_10h08.29.593,Motor_Task,2023.2.2,MacIntel,60.0024001,10.2063,11.2892,4,1,1.0735,,0,8,8,8,1,9,L,,4,,,,,,,
,,,,,,,,,,1,JDY,2023-09-24_10h08.29.593,Motor_Task,2023.2.2,MacIntel,60.0024001,11.2898,12.0238,1,1,0.7237,,0,9,9,9,1,10,I,,1,,,,,,,
,,,,,,,,,,1,JDY,2023-09-24_10h08.29.593,Motor_Task,2023.2.2,MacIntel,60.0024001,12.0243,12.6709,2,1,0.6383,,1,0,10,0,1,1,M,,2,,,,,,,
,,,,,,,,,,1,JDY,2023-09-24_10h08.29.593,Motor_Task,2023.2.2,MacIntel,60.0024001,12.6714,13.2076,3,1,0.5254,,1,1,11,1,1,2,R,,3,,,,,,,
,,,,,,,,,,1,JDY,2023-09-24_10h08.29.593,Motor_Task,2023.2.2,MacIntel,60.0024001,13.2083,13.907,2,1,0.6888,,1,2,12,2,1,3,M,,2,,,,,,,
,,,,,,,,,,1,JDY,2023-09-24_10h08.29.593,Motor_Task,2023.2.2,MacIntel,60.0024001,13.9076,14.3898,3,1,0.4742,,1,3,13,3,1,4,R,,3,,,,,,,
,,,,,,,,,,1,JDY,2023-09-24_10h08.29.593,Motor_Task,2023.2.2,MacIntel,60.0024001,14.3903,15.0073,1,1,0.6069,,1,4,14,4,1,5,I,,1,,,,,,,
,,,,,,,,,,1,JDY,2023-09-24_10h08.29.593,Motor_Task,2023.2.2,MacIntel,60.0024001,15.0079,15.624,1,1,0.6039,,1,5,15,5,1,6,I,,1,,,,,,,
,,,,,,,,,,1,JDY,2023-09-24_10h08.29.593,Motor_Task,2023.2.2,MacIntel,60.0024001,15.6246,16.1548,3,1,0.5214,,1,6,16,6,1,7,R,,3,,,,,,,
,,,,,,,,,,1,JDY,2023-09-24_10h08.29.593,Motor_Task,2023.2.2,MacIntel,60.0024001,16.1553,16.7711,2,1,0.6082,,1,7,17,7,1,8,M,,2,,,,,,,
,,,,,,,,,,1,JDY,2023-09-24_10h08.29.593,Motor_Task,2023.2.2,MacIntel,60.0024001,16.7717,17.8877,4,1,1.1084,,1,8,18,8,1,9,L,,4,,,,,,,
,,,,,,,,,,1,JDY,2023-09-24_10h08.29.593,Motor_Task,2023.2.2,MacIntel,60.0024001,17.8882,18.5573,1,1,0.6586,,1,9,19,9,1,10,I,,1,,,,,,,
,,,,,,,,,,1,JDY,2023-09-24_10h08.29.593,Motor_Task,2023.2.2,MacIntel,60.0024001,18.5581,19.071,2,1,0.504,,2,0,20,0,1,1,M,,2,,,,,,,
,,,,,,,,,,1,JDY,2023-09-24_10h08.29.593,Motor_Task,2023.2.2,MacIntel,60.0024001,19.0717,19.5709,3,1,0.4906,,2,1,21,1,1,2,R,,3,,,,,,,
,,,,,,,,,,1,JDY,2023-09-24_10h08.29.593,Motor_Task,2023.2.2,MacIntel,60.0024001,19.5713,20.1377,2,1,0.5621,,2,2,22,2,1,3,M,,2,,,,,,,
,,,,,,,,,,1,JDY,2023-09-24_10h08.29.593,Motor_Task,2023.2.2,MacIntel,60.0024001,20.1384,20.7043,3,1,0.557,,2,3,23,3,1,4,R,,3,,,,,,,
,,,,,,,,,,1,JDY,2023-09-24_10h08.29.593,Motor_Task,2023.2.2,MacIntel,60.0024001,20.7048,21.2575,1,1,0.5415,,2,4,24,4,1,5,I,,1,,,,,,,
,,,,,,,,,,1,JDY,2023-09-24_10h08.29.593,Motor_Task,2023.2.2,MacIntel,60.0024001,21.2581,21.8394,1,1,0.5752,,2,5,25,5,1,6,I,,1,,,,,,,
,,,,,,,,,,1,JDY,2023-09-24_10h08.29.593,Motor_Task,2023.2.2,MacIntel,60.0024001,21.84,22.3546,3,1,0.5114,,2,6,26,6,1,7,R,,3,,,,,,,
,,,,,,,,,,1,JDY,2023-09-24_10h08.29.593,Motor_Task,2023.2.2,MacIntel,60.0024001,22.3554,22.8576,2,1,0.4971,,2,7,27,7,1,8,M,,2,,,,,,,
,,,,,,,,,,1,JDY,2023-09-24_10h08.29.593,Motor_Task,2023.2.2,MacIntel,60.0024001,22.8588,23.5229,4,1,0.6541,,2,8,28,8,1,9,L,,4,,,,,,,
,,,,,,,,,,1,JDY,2023-09-24_10h08.29.593,Motor_Task,2023.2.2,MacIntel,60.0024001,23.5236,24.1568,1,1,0.6217,,2,9,29,9,1,10,I,,1,,,,,,,
,,,,,,,,,,1,JDY,2023-09-24_10h08.29.593,Motor_Task,2023.2.2,MacIntel,60.0024001,24.1574,24.6405,2,1,0.4743,,3,0,30,0,1,1,M,,2,,,,,,,
,,,,,,,,,,1,JDY,2023-09-24_10h08.29.593,Motor_Task,2023.2.2,MacIntel,60.0024001,24.641,25.1408,3,1,0.4994,,3,1,31,1,1,2,R,,3,,,,,,,
,,,,,,,,,,1,JDY,2023-09-24_10h08.29.593,Motor_Task,2023.2.2,MacIntel,60.0024001,25.1411,25.7063,2,1,0.5556,,3,2,32,2,1,3,M,,2,,,,,,,
,,,,,,,,,,1,JDY,2023-09-24_10h08.29.593,Motor_Task,2023.2.2,MacIntel,60.0024001,25.7069,26.1729,3,1,0.4554,,3,3,33,3,1,4,R,,3,,,,,,,
,,,,,,,,,,1,JDY,2023-09-24_10h08.29.593,Motor_Task,2023.2.2,MacIntel,60.0024001,26.1733,26.6736,1,1,0.4902,,3,4,34,4,1,5,I,,1,,,,,,,
,,,,,,,,,,1,JDY,2023-09-24_10h08.29.593,Motor_Task,2023.2.2,MacIntel,60.0024001,26.6741,27.1572,1,1,0.4769,,3,5,35,5,1,6,I,,1,,,,,,,
,,,,,,,,,,1,JDY,2023-09-24_10h08.29.593,Motor_Task,2023.2.2,MacIntel,60.0024001,27.1577,27.7046,3,1,0.5462,,3,6,36,6,1,7,R,,3,,,,,,,
,,,,,,,,,,1,JDY,2023-09-24_10h08.29.593,Motor_Task,2023.2.2,MacIntel,60.0024001,27.7051,28.2236,2,1,0.5081,,3,7,37,7,1,8,M,,2,,,,,,,
,,,,,,,,,,1,JDY,2023-09-24_10h08.29.593,Motor_Task,2023.2.2,MacIntel,60.0024001,28.2241,29.0722,4,1,0.844,,3,8,38,8,1,9,L,,4,,,,,,,
,,,,,,,,,,1,JDY,2023-09-24_10h08.29.593,Motor_Task,2023.2.2,MacIntel,60.0024001,29.0728,29.6411,1,1,0.559,,3,9,39,9,1,10,I,,1,,,,,,,
,,,,,,,,,,1,JDY,2023-09-24_10h08.29.593,Motor_Task,2023.2.2,MacIntel,60.0024001,29.6418,30.1733,2,1,0.5211,,4,0,40,0,1,1,M,,2,,,,,,,
,,,,,,,,,,1,JDY,2023-09-24_10h08.29.593,Motor_Task,2023.2.2,MacIntel,60.0024001,30.1739,30.6744,3,1,0.4877,,4,1,41,1,1,2,R,,3,,,,,,,
,,,,,,,,,,1,JDY,2023-09-24_10h08.29.593,Motor_Task,2023.2.2,MacIntel,60.0024001,30.6748,31.3076,2,1,0.6273,,4,2,42,2,1,3,M,,2,,,,,,,
,,,,,,,,,,1,JDY,2023-09-24_10h08.29.593,Motor_Task,2023.2.2,MacIntel,60.0024001,31.3082,31.804,3,1,0.4879,,4,3,43,3,1,4,R,,3,,,,,,,
,,,,,,,,,,1,JDY,2023-09-24_10h08.29.593,Motor_Task,2023.2.2,MacIntel,60.0024001,31.8045,32.3735,1,1,0.5577,,4,4,44,4,1,5,I,,1,,,,,,,
,,,,,,,,,,1,JDY,2023-09-24_10h08.29.593,Motor_Task,2023.2.2,MacIntel,60.0024001,32.3739,32.9374,1,1,0.5547,,4,5,45,5,1,6,I,,1,,,,,,,
,,,,,,,,,,1,JDY,2023-09-24_10h08.29.593,Motor_Task,2023.2.2,MacIntel,60.0024001,32.9378,33.4709,3,1,0.5275,,4,6,46,6,1,7,R,,3,,,,,,,
,,,,,,,,,,1,JDY,2023-09-24_10h08.29.593,Motor_Task,2023.2.2,MacIntel,60.0024001,33.4716,33.9732,2,1,0.4928,,4,7,47,7,1,8,M,,2,,,,,,,
,,,,,,,,,,1,JDY,2023-09-24_10h08.29.593,Motor_Task,2023.2.2,MacIntel,60.0024001,33.9738,34.6894,4,1,0.7089,,4,8,48,8,1,9,L,,4,,,,,,,
,,,,,,,,,,1,JDY,2023-09-24_10h08.29.593,Motor_Task,2023.2.2,MacIntel,60.0024001,34.69,35.3068,1,1,0.6142,,4,9,49,9,1,10,I,,1,,,,,,,
,,,,,,,,,,1,JDY,2023-09-24_10h08.29.593,Motor_Task,2023.2.2,MacIntel,60.0024001,35.3074,35.9372,2,1,0.6209,,5,0,50,0,1,1,M,,2,,,,,,,
,,,,,,,,,,1,JDY,2023-09-24_10h08.29.593,Motor_Task,2023.2.2,MacIntel,60.0024001,35.9377,36.4234,3,1,0.4819,,5,1,51,1,1,2,R,,3,,,,,,,
,,,,,,,,,,1,JDY,2023-09-24_10h08.29.593,Motor_Task,2023.2.2,MacIntel,60.0024001,36.424,36.8749,2,1,0.4421,,5,2,52,2,1,3,M,,2,,,,,,,
,,,,,,,,,,1,JDY,2023-09-24_10h08.29.593,Motor_Task,2023.2.2,MacIntel,60.0024001,36.8753,37.3894,3,1,0.512,,5,3,53,3,1,4,R,,3,,,,,,,
,,,,,,,,,,1,JDY,2023-09-24_10h08.29.593,Motor_Task,2023.2.2,MacIntel,60.0024001,37.39,37.9575,1,1,0.5544,,5,4,54,4,1,5,I,,1,,,,,,,
,,,,,,,,,,1,JDY,2023-09-24_10h08.29.593,Motor_Task,2023.2.2,MacIntel,60.0024001,37.958,38.5576,1,1,0.593,,5,5,55,5,1,6,I,,1,,,,,,,
,,,,,,,,,,1,JDY,2023-09-24_10h08.29.593,Motor_Task,2023.2.2,MacIntel,60.0024001,38.5581,39.0715,3,1,0.5035,,5,6,56,6,1,7,R,,3,,,,,,,
,,,,,,,,,,1,JDY,2023-09-24_10h08.29.593,Motor_Task,2023.2.2,MacIntel,60.0024001,39.072,39.5207,2,1,0.4442,,5,7,57,7,1,8,M,,2,,,,,,,
,,,,,,,,,,1,JDY,2023-09-24_10h08.29.593,Motor_Task,2023.2.2,MacIntel,60.0024001,39.5212,40.3038,4,1,0.7752,,5,8,58,8,1,9,L,,4,,,,,,,
,,,,,,,,,,1,JDY,2023-09-24_10h08.29.593,Motor_Task,2023.2.2,MacIntel,60.0024001,40.3044,40.9407,1,1,0.6278,,5,9,59,9,1,10,I,,1,,,,,,,
,,,,,,,,,,1,JDY,2023-09-24_10h08.29.593,Motor_Task,2023.2.2,MacIntel,60.0024001,40.9413,41.438,2,1,0.4959,,6,0,60,0,1,1,M,,2,,,,,,,
,,,,,,,,,,1,JDY,2023-09-24_10h08.29.593,Motor_Task,2023.2.2,MacIntel,60.0024001,41.4385,41.9246,3,1,0.4726,,6,1,61,1,1,2,R,,3,,,,,,,
,,,,,,,,,,1,JDY,2023-09-24_10h08.29.593,Motor_Task,2023.2.2,MacIntel,60.0024001,41.9253,42.4706,2,1,0.5355,,6,2,62,2,1,3,M,,2,,,,,,,
,,,,,,,,,,1,JDY,2023-09-24_10h08.29.593,Motor_Task,2023.2.2,MacIntel,60.0024001,42.4711,42.9238,3,1,0.4494,,6,3,63,3,1,4,R,,3,,,,,,,
,,,,,,,,,,1,JDY,2023-09-24_10h08.29.593,Motor_Task,2023.2.2,MacIntel,60.0024001,42.9244,43.5231,1,1,0.5888,,6,4,64,4,1,5,I,,1,,,,,,,
,,,,,,,,,,1,JDY,2023-09-24_10h08.29.593,Motor_Task,2023.2.2,MacIntel,60.0024001,43.5238,44.0716,1,1,0.538,,6,5,65,5,1,6,I,,1,,,,,,,
,,,,,,,,,,1,JDY,2023-09-24_10h08.29.593,Motor_Task,2023.2.2,MacIntel,60.0024001,44.0722,44.5739,3,1,0.4984,,6,6,66,6,1,7,R,,3,,,,,,,
,,,,,,,,,,1,JDY,2023-09-24_10h08.29.593,Motor_Task,2023.2.2,MacIntel,60.0024001,44.5744,45.1234,2,1,0.5384,,6,7,67,7,1,8,M,,2,,,,,,,
,,,,,,,,,,1,JDY,2023-09-24_10h08.29.593,Motor_Task,2023.2.2,MacIntel,60.0024001,45.1238,45.7237,4,1,0.5966,,6,8,68,8,1,9,L,,4,,,,,,,
,,,,,,,,,,1,JDY,2023-09-24_10h08.29.593,Motor_Task,2023.2.2,MacIntel,60.0024001,45.7241,46.4895,1,1,0.7585,,6,9,69,9,1,10,I,,1,,,,,,,
,,,,,,,,,,1,JDY,2023-09-24_10h08.29.593,Motor_Task,2023.2.2,MacIntel,60.0024001,46.4901,47.2063,2,1,0.7151,,7,0,70,0,1,1,M,,2,,,,,,,
,,,,,,,,,,1,JDY,2023-09-24_10h08.29.593,Motor_Task,2023.2.2,MacIntel,60.0024001,47.207,47.6569,3,1,0.448,,7,1,71,1,1,2,R,,3,,,,,,,
,,,,,,,,,,1,JDY,2023-09-24_10h08.29.593,Motor_Task,2023.2.2,MacIntel,60.0024001,47.6574,48.1904,2,1,0.5239,,7,2,72,2,1,3,M,,2,,,,,,,
,,,,,,,,,,1,JDY,2023-09-24_10h08.29.593,Motor_Task,2023.2.2,MacIntel,60.0024001,48.1909,48.6224,3,1,0.4209,,7,3,73,3,1,4,R,,3,,,,,,,
,,,,,,,,,,1,JDY,2023-09-24_10h08.29.593,Motor_Task,2023.2.2,MacIntel,60.0024001,48.6231,49.3242,1,1,0.6913,,7,4,74,4,1,5,I,,1,,,,,,,
,,,,,,,,,,1,JDY,2023-09-24_10h08.29.593,Motor_Task,2023.2.2,MacIntel,60.0024001,49.3248,49.8891,1,1,0.5549,,7,5,75,5,1,6,I,,1,,,,,,,
,,,,,,,,,,1,JDY,2023-09-24_10h08.29.593,Motor_Task,2023.2.2,MacIntel,60.0024001,49.8896,50.4071,3,1,0.5078,,7,6,76,6,1,7,R,,3,,,,,,,
,,,,,,,,,,1,JDY,2023-09-24_10h08.29.593,Motor_Task,2023.2.2,MacIntel,60.0024001,50.4076,50.9241,2,1,0.5071,,7,7,77,7,1,8,M,,2,,,,,,,
,,,,,,,,,,1,JDY,2023-09-24_10h08.29.593,Motor_Task,2023.2.2,MacIntel,60.0024001,50.9245,51.5207,4,1,0.5886,,7,8,78,8,1,9,L,,4,,,,,,,
,,,,,,,,,,1,JDY,2023-09-24_10h08.29.593,Motor_Task,2023.2.2,MacIntel,60.0024001,51.5213,52.0577,1,1,0.5253,,7,9,79,9,1,10,I,,1,,,,,,,
,,,,,,,,,,1,JDY,2023-09-24_10h08.29.593,Motor_Task,2023.2.2,MacIntel,60.0024001,52.0588,52.5887,2,1,0.5254,,8,0,80,0,1,1,M,,2,,,,,,,
,,,,,,,,,,1,JDY,2023-09-24_10h08.29.593,Motor_Task,2023.2.2,MacIntel,60.0024001,52.5892,53.0875,3,1,0.4904,,8,1,81,1,1,2,R,,3,,,,,,,
,,,,,,,,,,1,JDY,2023-09-24_10h08.29.593,Motor_Task,2023.2.2,MacIntel,60.0024001,53.0879,53.5394,2,1,0.442,,8,2,82,2,1,3,M,,2,,,,,,,
,,,,,,,,,,1,JDY,2023-09-24_10h08.29.593,Motor_Task,2023.2.2,MacIntel,60.0024001,53.54,53.9748,3,1,0.4208,,8,3,83,3,1,4,R,,3,,,,,,,
,,,,,,,,,,1,JDY,2023-09-24_10h08.29.593,Motor_Task,2023.2.2,MacIntel,60.0024001,53.9757,54.5731,1,1,0.5964,,8,4,84,4,1,5,I,,1,,,,,,,
,,,,,,,,,,1,JDY,2023-09-24_10h08.29.593,Motor_Task,2023.2.2,MacIntel,60.0024001,54.5736,55.0877,1,1,0.5109,,8,5,85,5,1,6,I,,1,,,,,,,
,,,,,,,,,,1,JDY,2023-09-24_10h08.29.593,Motor_Task,2023.2.2,MacIntel,60.0024001,55.0883,55.6073,3,1,0.513,,8,6,86,6,1,7,R,,3,,,,,,,
,,,,,,,,,,1,JDY,2023-09-24_10h08.29.593,Motor_Task,2023.2.2,MacIntel,60.0024001,55.609,56.1226,2,1,0.5031,,8,7,87,7,1,8,M,,2,,,,,,,
,,,,,,,,,,1,JDY,2023-09-24_10h08.29.593,Motor_Task,2023.2.2,MacIntel,60.0024001,56.1232,56.7887,4,1,0.6595,,8,8,88,8,1,9,L,,4,,,,,,,
,,,,,,,,,,1,JDY,2023-09-24_10h08.29.593,Motor_Task,2023.2.2,MacIntel,60.0024001,56.7895,57.3043,1,1,0.5076,,8,9,89,9,1,10,I,,1,,,,,,,
,,,,,,,,,,1,JDY,2023-09-24_10h08.29.593,Motor_Task,2023.2.2,MacIntel,60.0024001,57.3048,57.8056,2,1,0.4908,,9,0,90,0,1,1,M,,2,,,,,,,
,,,,,,,,,,1,JDY,2023-09-24_10h08.29.593,Motor_Task,2023.2.2,MacIntel,60.0024001,57.8062,58.2883,3,1,0.4725,,9,1,91,1,1,2,R,,3,,,,,,,
,,,,,,,,,,1,JDY,2023-09-24_10h08.29.593,Motor_Task,2023.2.2,MacIntel,60.0024001,58.2889,58.9049,2,1,0.6151,,9,2,92,2,1,3,M,,2,,,,,,,
,,,,,,,,,,1,JDY,2023-09-24_10h08.29.593,Motor_Task,2023.2.2,MacIntel,60.0024001,58.9054,59.0404,2,0,0.1231,,9,3,93,3,1,4,R,,3,,,,,,,
,,,,,,,,,,1,JDY,2023-09-24_10h08.29.593,Motor_Task,2023.2.2,MacIntel,60.0024001,59.0409,59.688,1,1,0.6377,,9,4,94,4,1,5,I,,1,,,,,,,
,,,,,,,,,,1,JDY,2023-09-24_10h08.29.593,Motor_Task,2023.2.2,MacIntel,60.0024001,59.6886,60.225,1,1,0.5334,,9,5,95,5,1,6,I,,1,,,,,,,
,,,,,,,,,,1,JDY,2023-09-24_10h08.29.593,Motor_Task,2023.2.2,MacIntel,60.0024001,60.2254,60.7555,3,1,0.521,,9,6,96,6,1,7,R,,3,,,,,,,
,,,,,,,,,,1,JDY,2023-09-24_10h08.29.593,Motor_Task,2023.2.2,MacIntel,60.0024001,60.756,61.2245,2,1,0.4621,,9,7,97,7,1,8,M,,2,,,,,,,
,,,,,,,,,,1,JDY,2023-09-24_10h08.29.593,Motor_Task,2023.2.2,MacIntel,60.0024001,61.2251,61.7391,3,0,0.5045,,9,8,98,8,1,9,L,,4,,,,,,,
,,,,,,,,,,1,JDY,2023-09-24_10h08.29.593,Motor_Task,2023.2.2,MacIntel,60.0024001,61.7398,61.7909,4,0,0.0398,,9,9,99,9,1,10,I,,1,,,,,,,
,,,,,,,,,,1,JDY,2023-09-24_10h08.29.593,Motor_Task,2023.2.2,MacIntel,60.0024001,61.7912,62.4721,2,1,0.6687,,10,0,100,0,1,1,M,,2,,,,,,,
,,,,,,,,,,1,JDY,2023-09-24_10h08.29.593,Motor_Task,2023.2.2,MacIntel,60.0024001,62.4726,63.0555,3,1,0.5728,,10,1,101,1,1,2,R,,3,,,,,,,
,,,,,,,,,,1,JDY,2023-09-24_10h08.29.593,Motor_Task,2023.2.2,MacIntel,60.0024001,63.0561,63.7045,2,1,0.6477,,10,2,102,2,1,3,M,,2,,,,,,,
,,,,,,,,,,1,JDY,2023-09-24_10h08.29.593,Motor_Task,2023.2.2,MacIntel,60.0024001,63.705,64.157,3,1,0.4407,,10,3,103,3,1,4,R,,3,,,,,,,
,,,,,,,,,,1,JDY,2023-09-24_10h08.29.593,Motor_Task,2023.2.2,MacIntel,60.0024001,64.1579,64.704,1,1,0.5375,,10,4,104,4,1,5,I,,1,,,,,,,
,,,,,,,,,,1,JDY,2023-09-24_10h08.29.593,Motor_Task,2023.2.2,MacIntel,60.0024001,64.7046,65.2542,1,1,0.549,,10,5,105,5,1,6,I,,1,,,,,,,
,,,,,,,,,,1,JDY,2023-09-24_10h08.29.593,Motor_Task,2023.2.2,MacIntel,60.0024001,65.2548,65.7726,3,1,0.5072,,10,6,106,6,1,7,R,,3,,,,,,,
,,,,,,,,,,1,JDY,2023-09-24_10h08.29.593,Motor_Task,2023.2.2,MacIntel,60.0024001,65.7733,66.2746,2,1,0.4895,,10,7,107,7,1,8,M,,2,,,,,,,
,,,,,,,,,,1,JDY,2023-09-24_10h08.29.593,Motor_Task,2023.2.2,MacIntel,60.0024001,66.2755,67.0206,4,1,0.7374,,10,8,108,8,1,9,L,,4,,,,,,,
,,,,,,,,,,1,JDY,2023-09-24_10h08.29.593,Motor_Task,2023.2.2,MacIntel,60.0024001,67.0213,67.5744,1,1,0.5505,,10,9,109,9,1,10,I,,1,,,,,,,
,,,,,,,,,,1,JDY,2023-09-24_10h08.29.593,Motor_Task,2023.2.2,MacIntel,60.0024001,67.5749,68.1557,2,1,0.5715,,11,0,110,0,1,1,M,,2,,,,,,,
,,,,,,,,,,1,JDY,2023-09-24_10h08.29.593,Motor_Task,2023.2.2,MacIntel,60.0024001,68.1562,68.6895,3,1,0.5227,,11,1,111,1,1,2,R,,3,,,,,,,
,,,,,,,,,,1,JDY,2023-09-24_10h08.29.593,Motor_Task,2023.2.2,MacIntel,60.0024001,68.6901,69.3389,2,1,0.6481,,11,2,112,2,1,3,M,,2,,,,,,,
,,,,,,,,,,1,JDY,2023-09-24_10h08.29.593,Motor_Task,2023.2.2,MacIntel,60.0024001,69.3395,69.8395,3,1,0.4932,,11,3,113,3,1,4,R,,3,,,,,,,
,,,,,,,,,,1,JDY,2023-09-24_10h08.29.593,Motor_Task,2023.2.2,MacIntel,60.0024001,69.8401,70.4402,1,1,0.59,,11,4,114,4,1,5,I,,1,,,,,,,
,,,,,,,,,,1,JDY,2023-09-24_10h08.29.593,Motor_Task,2023.2.2,MacIntel,60.0024001,70.4407,71.0207,1,1,0.5711,,11,5,115,5,1,6,I,,1,,,,,,,
,,,,,,,,,,1,JDY,2023-09-24_10h08.29.593,Motor_Task,2023.2.2,MacIntel,60.0024001,71.0213,71.5392,3,1,0.5086,,11,6,116,6,1,7,R,,3,,,,,,,
,,,,,,,,,,1,JDY,2023-09-24_10h08.29.593,Motor_Task,2023.2.2,MacIntel,60.0024001,71.5399,72.0539,2,1,0.5066,,11,7,117,7,1,8,M,,2,,,,,,,
,,,,,,,,,,1,JDY,2023-09-24_10h08.29.593,Motor_Task,2023.2.2,MacIntel,60.0024001,72.0544,72.7039,4,1,0.6422,,11,8,118,8,1,9,L,,4,,,,,,,
,,,,,,,,,,1,JDY,2023-09-24_10h08.29.593,Motor_Task,2023.2.2,MacIntel,60.0024001,72.7045,73.3387,1,1,0.6325,,11,9,119,9,1,10,I,,1,,,,,,,
,,,,,,,,,,1,JDY,2023-09-24_10h08.29.593,Motor_Task,2023.2.2,MacIntel,60.0024001,73.3392,73.8718,2,1,0.5296,,12,0,120,0,1,1,M,,2,,,,,,,
,,,,,,,,,,1,JDY,2023-09-24_10h08.29.593,Motor_Task,2023.2.2,MacIntel,60.0024001,73.8722,74.3539,3,1,0.4808,,12,1,121,1,1,2,R,,3,,,,,,,
,,,,,,,,,,1,JDY,2023-09-24_10h08.29.593,Motor_Task,2023.2.2,MacIntel,60.0024001,74.3543,74.873,2,1,0.5084,,12,2,122,2,1,3,M,,2,,,,,,,
,,,,,,,,,,1,JDY,2023-09-24_10h08.29.593,Motor_Task,2023.2.2,MacIntel,60.0024001,74.8735,75.4063,3,1,0.5223,,12,3,123,3,1,4,R,,3,,,,,,,
,,,,,,,,,,1,JDY,2023-09-24_10h08.29.593,Motor_Task,2023.2.2,MacIntel,60.0024001,75.407,75.9875,1,1,0.5735,,12,4,124,4,1,5,I,,1,,,,,,,
,,,,,,,,,,1,JDY,2023-09-24_10h08.29.593,Motor_Task,2023.2.2,MacIntel,60.0024001,75.988,76.5554,1,1,0.5669,,12,5,125,5,1,6,I,,1,,,,,,,
,,,,,,,,,,1,JDY,2023-09-24_10h08.29.593,Motor_Task,2023.2.2,MacIntel,60.0024001,76.556,77.0718,3,1,0.5121,,12,6,126,6,1,7,R,,3,,,,,,,
,,,,,,,,,,1,JDY,2023-09-24_10h08.29.593,Motor_Task,2023.2.2,MacIntel,60.0024001,77.0739,77.5893,2,1,0.5062,,12,7,127,7,1,8,M,,2,,,,,,,
,,,,,,,,,,1,JDY,2023-09-24_10h08.29.593,Motor_Task,2023.2.2,MacIntel,60.0024001,77.5899,78.3723,4,1,0.7782,,12,8,128,8,1,9,L,,4,,,,,,,
,,,,,,,,,,1,JDY,2023-09-24_10h08.29.593,Motor_Task,2023.2.2,MacIntel,60.0024001,78.3726,79.0067,1,1,0.6236,,12,9,129,9,1,10,I,,1,,,,,,,
,,,,,,,,,,1,JDY,2023-09-24_10h08.29.593,Motor_Task,2023.2.2,MacIntel,60.0024001,79.0072,79.6233,2,1,0.6119,,13,0,130,0,1,1,M,,2,,,,,,,
,,,,,,,,,,1,JDY,2023-09-24_10h08.29.593,Motor_Task,2023.2.2,MacIntel,60.0024001,79.6239,80.1064,3,1,0.4771,,13,1,131,1,1,2,R,,3,,,,,,,
,,,,,,,,,,1,JDY,2023-09-24_10h08.29.593,Motor_Task,2023.2.2,MacIntel,60.0024001,80.1071,80.5901,2,1,0.4782,,13,2,132,2,1,3,M,,2,,,,,,,
,,,,,,,,,,1,JDY,2023-09-24_10h08.29.593,Motor_Task,2023.2.2,MacIntel,60.0024001,80.5907,81.0402,3,1,0.4396,,13,3,133,3,1,4,R,,3,,,,,,,
,,,,,,,,,,1,JDY,2023-09-24_10h08.29.593,Motor_Task,2023.2.2,MacIntel,60.0024001,81.0408,81.5725,1,1,0.521,,13,4,134,4,1,5,I,,1,,,,,,,
,,,,,,,,,,1,JDY,2023-09-24_10h08.29.593,Motor_Task,2023.2.2,MacIntel,60.0024001,81.5733,82.1215,1,1,0.5422,,13,5,135,5,1,6,I,,1,,,,,,,
,,,,,,,,,,1,JDY,2023-09-24_10h08.29.593,Motor_Task,2023.2.2,MacIntel,60.0024001,82.1218,82.6897,3,1,0.5577,,13,6,136,6,1,7,R,,3,,,,,,,
,,,,,,,,,,1,JDY,2023-09-24_10h08.29.593,Motor_Task,2023.2.2,MacIntel,60.0024001,82.6902,83.1737,2,1,0.4699,,13,7,137,7,1,8,M,,2,,,,,,,
,,,,,,,,,,1,JDY,2023-09-24_10h08.29.593,Motor_Task,2023.2.2,MacIntel,60.0024001,83.1741,83.8058,4,1,0.626,,13,8,138,8,1,9,L,,4,,,,,,,
,,,,,,,,,,1,JDY,2023-09-24_10h08.29.593,Motor_Task,2023.2.2,MacIntel,60.0024001,83.8062,84.3551,1,1,0.5396,,13,9,139,9,1,10,I,,1,,,,,,,
,,,,,,,,,,1,JDY,2023-09-24_10h08.29.593,Motor_Task,2023.2.2,MacIntel,60.0024001,84.3555,84.8384,2,1,0.4735,,14,0,140,0,1,1,M,,2,,,,,,,
,,,,,,,,,,1,JDY,2023-09-24_10h08.29.593,Motor_Task,2023.2.2,MacIntel,60.0024001,84.8389,85.3892,3,1,0.5376,,14,1,141,1,1,2,R,,3,,,,,,,
,,,,,,,,,,1,JDY,2023-09-24_10h08.29.593,Motor_Task,2023.2.2,MacIntel,60.0024001,85.3897,85.9044,2,1,0.5142,,14,2,142,2,1,3,M,,2,,,,,,,
,,,,,,,,,,1,JDY,2023-09-24_10h08.29.593,Motor_Task,2023.2.2,MacIntel,60.0024001,85.9049,86.3907,3,1,0.4825,,14,3,143,3,1,4,R,,3,,,,,,,
,,,,,,,,,,1,JDY,2023-09-24_10h08.29.593,Motor_Task,2023.2.2,MacIntel,60.0024001,86.3911,86.9208,1,1,0.5241,,14,4,144,4,1,5,I,,1,,,,,,,
,,,,,,,,,,1,JDY,2023-09-24_10h08.29.593,Motor_Task,2023.2.2,MacIntel,60.0024001,86.9213,87.4571,1,1,0.5244,,14,5,145,5,1,6,I,,1,,,,,,,
,,,,,,,,,,1,JDY,2023-09-24_10h08.29.593,Motor_Task,2023.2.2,MacIntel,60.0024001,87.4577,87.9212,3,1,0.4559,,14,6,146,6,1,7,R,,3,,,,,,,
,,,,,,,,,,1,JDY,2023-09-24_10h08.29.593,Motor_Task,2023.2.2,MacIntel,60.0024001,87.9218,88.4051,2,1,0.4754,,14,7,147,7,1,8,M,,2,,,,,,,
,,,,,,,,,,1,JDY,2023-09-24_10h08.29.593,Motor_Task,2023.2.2,MacIntel,60.0024001,88.4057,89.0374,4,1,0.6207,,14,8,148,8,1,9,L,,4,,,,,,,
,,,,,,,,,,1,JDY,2023-09-24_10h08.29.593,Motor_Task,2023.2.2,MacIntel,60.0024001,89.038,89.6066,1,1,0.5663,,14,9,149,9,1,10,I,,1,,,,,,,
,,,,,,,,,,1,JDY,2023-09-24_10h08.29.593,Motor_Task,2023.2.2,MacIntel,60.0024001,89.6072,90.1051,2,1,0.4946,,15,0,150,0,1,1,M,,2,,,,,,,
,,,,,,,,,,1,JDY,2023-09-24_10h08.29.593,Motor_Task,2023.2.2,MacIntel,60.0024001,90.1056,90.5733,3,1,0.4645,,15,1,151,1,1,2,R,,3,,,,,,,
,,,,,,,,,,1,JDY,2023-09-24_10h08.29.593,Motor_Task,2023.2.2,MacIntel,60.0024001,90.5738,91.0559,2,1,0.4714,,15,2,152,2,1,3,M,,2,,,,,,,
,,,,,,,,,,1,JDY,2023-09-24_10h08.29.593,Motor_Task,2023.2.2,MacIntel,60.0024001,91.0565,91.5395,3,1,0.4721,,15,3,153,3,1,4,R,,3,,,,,,,
,,,,,,,,,,1,JDY,2023-09-24_10h08.29.593,Motor_Task,2023.2.2,MacIntel,60.0024001,91.5401,92.0203,1,1,0.478,,15,4,154,4,1,5,I,,1,,,,,,,
,,,,,,,,,,1,JDY,2023-09-24_10h08.29.593,Motor_Task,2023.2.2,MacIntel,60.0024001,92.0207,92.523,1,1,0.4976,,15,5,155,5,1,6,I,,1,,,,,,,
,,,,,,,,,,1,JDY,2023-09-24_10h08.29.593,Motor_Task,2023.2.2,MacIntel,60.0024001,92.5234,93.0059,3,1,0.4724,,15,6,156,6,1,7,R,,3,,,,,,,
,,,,,,,,,,1,JDY,2023-09-24_10h08.29.593,Motor_Task,2023.2.2,MacIntel,60.0024001,93.0063,93.5204,2,1,0.5044,,15,7,157,7,1,8,M,,2,,,,,,,
,,,,,,,,,,1,JDY,2023-09-24_10h08.29.593,Motor_Task,2023.2.2,MacIntel,60.0024001,93.5209,94.0722,4,1,0.5419,,15,8,158,8,1,9,L,,4,,,,,,,
,,,,,,,,,,1,JDY,2023-09-24_10h08.29.593,Motor_Task,2023.2.2,MacIntel,60.0024001,94.0727,94.6391,1,1,0.5557,,15,9,159,9,1,10,I,,1,,,,,,,
,,,,,,,,,,1,JDY,2023-09-24_10h08.29.593,Motor_Task,2023.2.2,MacIntel,60.0024001,94.6397,95.2212,1,0,0.5723,,16,0,160,0,1,1,M,,2,,,,,,,
,,,,,,,,,,1,JDY,2023-09-24_10h08.29.593,Motor_Task,2023.2.2,MacIntel,60.0024001,95.2217,95.99,3,1,0.7574,,16,1,161,1,1,2,R,,3,,,,,,,
,,,,,,,,,,1,JDY,2023-09-24_10h08.29.593,Motor_Task,2023.2.2,MacIntel,60.0024001,95.9906,96.5706,2,1,0.569,,16,2,162,2,1,3,M,,2,,,,,,,
,,,,,,,,,,1,JDY,2023-09-24_10h08.29.593,Motor_Task,2023.2.2,MacIntel,60.0024001,96.5711,97.1712,3,1,0.5919,,16,3,163,3,1,4,R,,3,,,,,,,
,,,,,,,,,,1,JDY,2023-09-24_10h08.29.593,Motor_Task,2023.2.2,MacIntel,60.0024001,97.1717,97.6711,1,1,0.49,,16,4,164,4,1,5,I,,1,,,,,,,
,,,,,,,,,,1,JDY,2023-09-24_10h08.29.593,Motor_Task,2023.2.2,MacIntel,60.0024001,97.6718,98.2719,1,1,0.591,,16,5,165,5,1,6,I,,1,,,,,,,
,,,,,,,,,,1,JDY,2023-09-24_10h08.29.593,Motor_Task,2023.2.2,MacIntel,60.0024001,98.2725,98.7573,3,1,0.4736,,16,6,166,6,1,7,R,,3,,,,,,,
,,,,,,,,,,1,JDY,2023-09-24_10h08.29.593,Motor_Task,2023.2.2,MacIntel,60.0024001,98.758,99.3206,2,1,0.5561,,16,7,167,7,1,8,M,,2,,,,,,,
,,,,,,,,,,1,JDY,2023-09-24_10h08.29.593,Motor_Task,2023.2.2,MacIntel,60.0024001,99.321,99.9551,4,1,0.6235,,16,8,168,8,1,9,L,,4,,,,,,,
,,,,,,,,,,1,JDY,2023-09-24_10h08.29.593,Motor_Task,2023.2.2,MacIntel,60.0024001,99.9557,100.4395,1,1,0.4785,,16,9,169,9,1,10,I,,1,,,,,,,
,,,,,,,,,,1,JDY,2023-09-24_10h08.29.593,Motor_Task,2023.2.2,MacIntel,60.0024001,100.4399,101.2051,2,1,0.7636,,17,0,170,0,1,1,M,,2,,,,,,,
,,,,,,,,,,1,JDY,2023-09-24_10h08.29.593,Motor_Task,2023.2.2,MacIntel,60.0024001,101.2058,101.6871,3,1,0.473,,17,1,171,1,1,2,R,,3,,,,,,,
,,,,,,,,,,1,JDY,2023-09-24_10h08.29.593,Motor_Task,2023.2.2,MacIntel,60.0024001,101.6876,102.2221,2,1,0.5241,,17,2,172,2,1,3,M,,2,,,,,,,
,,,,,,,,,,1,JDY,2023-09-24_10h08.29.593,Motor_Task,2023.2.2,MacIntel,60.0024001,102.2227,102.7371,3,1,0.507,,17,3,173,3,1,4,R,,3,,,,,,,
,,,,,,,,,,1,JDY,2023-09-24_10h08.29.593,Motor_Task,2023.2.2,MacIntel,60.0024001,102.7376,103.2901,1,1,0.5395,,17,4,174,4,1,5,I,,1,,,,,,,
,,,,,,,,,,1,JDY,2023-09-24_10h08.29.593,Motor_Task,2023.2.2,MacIntel,60.0024001,103.2908,103.8573,1,1,0.5553,,17,5,175,5,1,6,I,,1,,,,,,,
,,,,,,,,,,1,JDY,2023-09-24_10h08.29.593,Motor_Task,2023.2.2,MacIntel,60.0024001,103.8578,104.3735,3,1,0.5133,,17,6,176,6,1,7,R,,3,,,,,,,
,,,,,,,,,,1,JDY,2023-09-24_10h08.29.593,Motor_Task,2023.2.2,MacIntel,60.0024001,104.3741,104.9042,2,1,0.5213,,17,7,177,7,1,8,M,,2,,,,,,,
,,,,,,,,,,1,JDY,2023-09-24_10h08.29.593,Motor_Task,2023.2.2,MacIntel,60.0024001,104.9047,105.4895,4,1,0.573,,17,8,178,8,1,9,L,,4,,,,,,,
,,,,,,,,,,1,JDY,2023-09-24_10h08.29.593,Motor_Task,2023.2.2,MacIntel,60.0024001,105.4899,106.0905,1,1,0.5887,,17,9,179,9,1,10,I,,1,,,,,,,
,,,,,,,,,,1,JDY,2023-09-24_10h08.29.593,Motor_Task,2023.2.2,MacIntel,60.0024001,106.0912,106.606,2,1,0.5055,,18,0,180,0,1,1,M,,2,,,,,,,
,,,,,,,,,,1,JDY,2023-09-24_10h08.29.593,Motor_Task,2023.2.2,MacIntel,60.0024001,106.6065,107.1056,3,1,0.4899,,18,1,181,1,1,2,R,,3,,,,,,,
,,,,,,,,,,1,JDY,2023-09-24_10h08.29.593,Motor_Task,2023.2.2,MacIntel,60.0024001,107.1063,107.8388,2,1,0.7273,,18,2,182,2,1,3,M,,2,,,,,,,
,,,,,,,,,,1,JDY,2023-09-24_10h08.29.593,Motor_Task,2023.2.2,MacIntel,60.0024001,107.8393,108.2881,3,1,0.4458,,18,3,183,3,1,4,R,,3,,,,,,,
,,,,,,,,,,1,JDY,2023-09-24_10h08.29.593,Motor_Task,2023.2.2,MacIntel,60.0024001,108.2885,109.0718,1,1,0.7745,,18,4,184,4,1,5,I,,1,,,,,,,
,,,,,,,,,,1,JDY,2023-09-24_10h08.29.593,Motor_Task,2023.2.2,MacIntel,60.0024001,109.0727,109.6207,1,1,0.5395,,18,5,185,5,1,6,I,,1,,,,,,,
,,,,,,,,,,1,JDY,2023-09-24_10h08.29.593,Motor_Task,2023.2.2,MacIntel,60.0024001,109.6212,110.2047,3,1,0.5749,,18,6,186,6,1,7,R,,3,,,,,,,
,,,,,,,,,,1,JDY,2023-09-24_10h08.29.593,Motor_Task,2023.2.2,MacIntel,60.0024001,110.2052,110.6718,2,1,0.4626,,18,7,187,7,1,8,M,,2,,,,,,,
,,,,,,,,,,1,JDY,2023-09-24_10h08.29.593,Motor_Task,2023.2.2,MacIntel,60.0024001,110.6724,111.157,4,1,0.475,,18,8,188,8,1,9,L,,4,,,,,,,
,,,,,,,,,,1,JDY,2023-09-24_10h08.29.593,Motor_Task,2023.2.2,MacIntel,60.0024001,111.1577,111.672,1,1,0.5047,,18,9,189,9,1,10,I,,1,,,,,,,
,,,,,,,,,,1,JDY,2023-09-24_10h08.29.593,Motor_Task,2023.2.2,MacIntel,60.0024001,111.6724,112.1204,2,1,0.4396,,19,0,190,0,1,1,M,,2,,,,,,,
,,,,,,,,,,1,JDY,2023-09-24_10h08.29.593,Motor_Task,2023.2.2,MacIntel,60.0024001,112.1211,112.5881,3,1,0.4631,,19,1,191,1,1,2,R,,3,,,,,,,
,,,,,,,,,,1,JDY,2023-09-24_10h08.29.593,Motor_Task,2023.2.2,MacIntel,60.0024001,112.5889,113.0719,2,1,0.4737,,19,2,192,2,1,3,M,,2,,,,,,,
,,,,,,,,,,1,JDY,2023-09-24_10h08.29.593,Motor_Task,2023.2.2,MacIntel,60.0024001,113.0725,113.5232,3,1,0.4438,,19,3,193,3,1,4,R,,3,,,,,,,
,,,,,,,,,,1,JDY,2023-09-24_10h08.29.593,Motor_Task,2023.2.2,MacIntel,60.0024001,113.5237,114.0372,1,1,0.505,,19,4,194,4,1,5,I,,1,,,,,,,
,,,,,,,,,,1,JDY,2023-09-24_10h08.29.593,Motor_Task,2023.2.2,MacIntel,60.0024001,114.0378,114.5735,1,1,0.5233,,19,5,195,5,1,6,I,,1,,,,,,,
,,,,,,,,,,1,JDY,2023-09-24_10h08.29.593,Motor_Task,2023.2.2,MacIntel,60.0024001,114.5742,115.0716,3,1,0.4877,,19,6,196,6,1,7,R,,3,,,,,,,
,,,,,,,,,,1,JDY,2023-09-24_10h08.29.593,Motor_Task,2023.2.2,MacIntel,60.0024001,115.072,115.5053,2,1,0.4303,,19,7,197,7,1,8,M,,2,,,,,,,
,,,,,,,,,,1,JDY,2023-09-24_10h08.29.593,Motor_Task,2023.2.2,MacIntel,60.0024001,115.5057,116.1219,4,1,0.6059,,19,8,198,8,1,9,L,,4,,,,,,,
,,,,,,,,,,1,JDY,2023-09-24_10h08.29.593,Motor_Task,2023.2.2,MacIntel,60.0024001,116.1224,116.5704,1,1,0.4389,,19,9,199,9,1,10,I,,1,,,,,,,
,,,,,,,,,,1,JDY,2023-09-24_10h08.29.593,Motor_Task,2023.2.2,MacIntel,60.0024001,116.5817,117.0398,2,1,0.4471,,,,,,,8,M,,2,0,0,0,7,1,,
,,,,,,,,,,1,JDY,2023-09-24_10h08.29.593,Motor_Task,2023.2.2,MacIntel,60.0024001,117.0408,117.6563,1,1,0.6057,,,,,,,10,I,,1,0,1,1,9,1,,
,,,,,,,,,,1,JDY,2023-09-24_10h08.29.593,Motor_Task,2023.2.2,MacIntel,60.0024001,117.6569,118.2576,2,1,0.59,,,,,,,3,M,,2,0,2,2,2,1,,
,,,,,,,,,,1,JDY,2023-09-24_10h08.29.593,Motor_Task,2023.2.2,MacIntel,60.0024001,118.2584,118.8052,3,1,0.5429,,,,,,,7,R,,3,0,3,3,6,1,,
,,,,,,,,,,1,JDY,2023-09-24_10h08.29.593,Motor_Task,2023.2.2,MacIntel,60.0024001,118.8056,119.4237,1,1,0.6071,,,,,,,5,I,,1,0,4,4,4,1,,
,,,,,,,,,,1,JDY,2023-09-24_10h08.29.593,Motor_Task,2023.2.2,MacIntel,60.0024001,119.4244,119.9567,3,1,0.5303,,,,,,,2,R,,3,0,5,5,1,1,,
,,,,,,,,,,1,JDY,2023-09-24_10h08.29.593,Motor_Task,2023.2.2,MacIntel,60.0024001,119.9573,120.6235,1,1,0.6639,,,,,,,6,I,,1,0,6,6,5,1,,
,,,,,,,,,,1,JDY,2023-09-24_10h08.29.593,Motor_Task,2023.2.2,MacIntel,60.0024001,120.624,121.1045,3,1,0.4741,,,,,,,4,R,,3,0,7,7,3,1,,
,,,,,,,,,,1,JDY,2023-09-24_10h08.29.593,Motor_Task,2023.2.2,MacIntel,60.0024001,121.1048,121.6557,2,1,0.5399,,,,,,,1,M,,2,0,8,8,0,1,,
,,,,,,,,,,1,JDY,2023-09-24_10h08.29.593,Motor_Task,2023.2.2,MacIntel,60.0024001,121.6579,122.2887,4,1,0.6217,,,,,,,9,L,,4,0,9,9,8,1,,
,,,,,,,,,,1,JDY,2023-09-24_10h08.29.593,Motor_Task,2023.2.2,MacIntel,60.0024001,122.2892,122.8399,1,1,0.5404,,,,,,,5,I,,1,1,0,10,4,1,,
,,,,,,,,,,1,JDY,2023-09-24_10h08.29.593,Motor_Task,2023.2.2,MacIntel,60.0024001,122.8405,123.4235,1,1,0.5708,,,,,,,10,I,,1,1,1,11,9,1,,
,,,,,,,,,,1,JDY,2023-09-24_10h08.29.593,Motor_Task,2023.2.2,MacIntel,60.0024001,123.4239,123.9046,2,1,0.4777,,,,,,,3,M,,2,1,2,12,2,1,,
,,,,,,,,,,1,JDY,2023-09-24_10h08.29.593,Motor_Task,2023.2.2,MacIntel,60.0024001,123.905,124.5404,2,1,0.6185,,,,,,,1,M,,2,1,3,13,0,1,,
,,,,,,,,,,1,JDY,2023-09-24_10h08.29.593,Motor_Task,2023.2.2,MacIntel,60.0024001,124.5405,125.3392,4,1,0.7889,,,,,,,9,L,,4,1,4,14,8,1,,
,,,,,,,,,,1,JDY,2023-09-24_10h08.29.593,Motor_Task,2023.2.2,MacIntel,60.0024001,125.3397,126.0891,3,1,0.7394,,,,,,,2,R,,3,1,5,15,1,1,,
,,,,,,,,,,1,JDY,2023-09-24_10h08.29.593,Motor_Task,2023.2.2,MacIntel,60.0024001,126.0895,126.6559,3,1,0.5615,,,,,,,7,R,,3,1,6,16,6,1,,
,,,,,,,,,,1,JDY,2023-09-24_10h08.29.593,Motor_Task,2023.2.2,MacIntel,60.0024001,126.6567,127.4399,3,1,0.7726,,,,,,,4,R,,3,1,7,17,3,1,,
,,,,,,,,,,1,JDY,2023-09-24_10h08.29.593,Motor_Task,2023.2.2,MacIntel,60.0024001,127.4405,128.1732,1,1,0.7218,,,,,,,6,I,,1,1,8,18,5,1,,
,,,,,,,,,,1,JDY,2023-09-24_10h08.29.593,Motor_Task,2023.2.2,MacIntel,60.0024001,128.1737,128.7224,2,1,0.5456,,,,,,,8,M,,2,1,9,19,7,1,,
,,,,,,,,,,1,JDY,2023-09-24_10h08.29.593,Motor_Task,2023.2.2,MacIntel,60.0024001,128.723,129.3234,3,1,0.594,,,,,,,7,R,,3,2,0,20,6,1,,
,,,,,,,,,,1,JDY,2023-09-24_10h08.29.593,Motor_Task,2023.2.2,MacIntel,60.0024001,129.3239,130.0239,3,1,0.6882,,,,,,,4,R,,3,2,1,21,3,1,,
,,,,,,,,,,1,JDY,2023-09-24_10h08.29.593,Motor_Task,2023.2.2,MacIntel,60.0024001,130.0246,130.5731,2,1,0.5394,,,,,,,8,M,,2,2,2,22,7,1,,
,,,,,,,,,,1,JDY,2023-09-24_10h08.29.593,Motor_Task,2023.2.2,MacIntel,60.0024001,130.5738,131.2743,2,1,0.6886,,,,,,,3,M,,2,2,3,23,2,1,,
,,,,,,,,,,1,JDY,2023-09-24_10h08.29.593,Motor_Task,2023.2.2,MacIntel,60.0024001,131.2751,131.9889,1,1,0.7031,,,,,,,10,I,,1,2,4,24,9,1,,
,,,,,,,,,,1,JDY,2023-09-24_10h08.29.593,Motor_Task,2023.2.2,MacIntel,60.0024001,131.9898,132.6439,2,1,0.6537,,,,,,,1,M,,2,2,5,25,0,1,,
,,,,,,,,,,1,JDY,2023-09-24_10h08.29.593,Motor_Task,2023.2.2,MacIntel,60.0024001,132.6442,133.34,1,1,0.6822,,,,,,,6,I,,1,2,6,26,5,1,,
,,,,,,,,,,1,JDY,2023-09-24_10h08.29.593,Motor_Task,2023.2.2,MacIntel,60.0024001,133.3402,133.9037,1,1,0.5557,,,,,,,5,I,,1,2,7,27,4,1,,
,,,,,,,,,,1,JDY,2023-09-24_10h08.29.593,Motor_Task,2023.2.2,MacIntel,60.0024001,133.9041,134.7886,4,1,0.8769,,,,,,,9,L,,4,2,8,28,8,1,,
,,,,,,,,,,1,JDY,2023-09-24_10h08.29.593,Motor_Task,2023.2.2,MacIntel,60.0024001,134.7892,135.5371,3,1,0.7401,,,,,,,2,R,,3,2,9,29,1,1,,
,,,,,,,,,,1,JDY,2023-09-24_10h08.29.593,Motor_Task,2023.2.2,MacIntel,60.0024001,135.5377,136.1222,2,1,0.5742,,,,,,,3,M,,2,3,0,30,2,1,,
,,,,,,,,,,1,JDY,2023-09-24_10h08.29.593,Motor_Task,2023.2.2,MacIntel,60.0024001,136.1227,136.6711,2,1,0.5431,,,,,,,8,M,,2,3,1,31,7,1,,
,,,,,,,,,,1,JDY,2023-09-24_10h08.29.593,Motor_Task,2023.2.2,MacIntel,60.0024001,136.6716,137.1892,3,1,0.5135,,,,,,,7,R,,3,3,2,32,6,1,,
,,,,,,,,,,1,JDY,2023-09-24_10h08.29.593,Motor_Task,2023.2.2,MacIntel,60.0024001,137.1896,137.7702,1,1,0.5741,,,,,,,5,I,,1,3,3,33,4,1,,
,,,,,,,,,,1,JDY,2023-09-24_10h08.29.593,Motor_Task,2023.2.2,MacIntel,60.0024001,137.7706,138.2903,3,1,0.5078,,,,,,,4,R,,3,3,4,34,3,1,,
,,,,,,,,,,1,JDY,2023-09-24_10h08.29.593,Motor_Task,2023.2.2,MacIntel,60.0024001,138.2908,138.9552,3,1,0.6636,,,,,,,2,R,,3,3,5,35,1,1,,
,,,,,,,,,,1,JDY,2023-09-24_10h08.29.593,Motor_Task,2023.2.2,MacIntel,60.0024001,138.9556,139.7385,2,1,0.7786,,,,,,,1,M,,2,3,6,36,0,1,,
,,,,,,,,,,1,JDY,2023-09-24_10h08.29.593,Motor_Task,2023.2.2,MacIntel,60.0024001,139.7387,140.3071,1,1,0.5571,,,,,,,10,I,,1,3,7,37,9,1,,
,,,,,,,,,,1,JDY,2023-09-24_10h08.29.593,Motor_Task,2023.2.2,MacIntel,60.0024001,140.3076,140.8905,1,1,0.58,,,,,,,6,I,,1,3,8,38,5,1,,
,,,,,,,,,,1,JDY,2023-09-24_10h08.29.593,Motor_Task,2023.2.2,MacIntel,60.0024001,140.8912,141.6688,4,1,0.7598,,,,,,,9,L,,4,3,9,39,8,1,,
,,,,,,,,,,1,JDY,2023-09-24_10h08.29.593,Motor_Task,2023.2.2,MacIntel,60.0024001,141.669,142.3873,2,1,0.7162,,,,,,,8,M,,2,4,0,40,7,1,,
,,,,,,,,,,1,JDY,2023-09-24_10h08.29.593,Motor_Task,2023.2.2,MacIntel,60.0024001,142.3876,143.0037,1,1,0.6079,,,,,,,6,I,,1,4,1,41,5,1,,
,,,,,,,,,,1,JDY,2023-09-24_10h08.29.593,Motor_Task,2023.2.2,MacIntel,60.0024001,143.0041,143.5371,3,1,0.5269,,,,,,,2,R,,3,4,2,42,1,1,,
,,,,,,,,,,1,JDY,2023-09-24_10h08.29.593,Motor_Task,2023.2.2,MacIntel,60.0024001,143.5375,144.1558,1,1,0.6089,,,,,,,5,I,,1,4,3,43,4,1,,
,,,,,,,,,,1,JDY,2023-09-24_10h08.29.593,Motor_Task,2023.2.2,MacIntel,60.0024001,144.1562,144.7402,3,1,0.5816,,,,,,,7,R,,3,4,4,44,6,1,,
,,,,,,,,,,1,JDY,2023-09-24_10h08.29.593,Motor_Task,2023.2.2,MacIntel,60.0024001,144.7407,145.3579,3,1,0.6015,,,,,,,4,R,,3,4,5,45,3,1,,
,,,,,,,,,,1,JDY,2023-09-24_10h08.29.593,Motor_Task,2023.2.2,MacIntel,60.0024001,145.3584,145.9048,2,1,0.5435,,,,,,,1,M,,2,4,6,46,0,1,,
,,,,,,,,,,1,JDY,2023-09-24_10h08.29.593,Motor_Task,2023.2.2,MacIntel,60.0024001,145.9052,146.5575,4,1,0.6427,,,,,,,9,L,,4,4,7,47,8,1,,
,,,,,,,,,,1,JDY,2023-09-24_10h08.29.593,Motor_Task,2023.2.2,MacIntel,60.0024001,146.5577,147.1536,1,1,0.588,,,,,,,10,I,,1,4,8,48,9,1,,
,,,,,,,,,,1,JDY,2023-09-24_10h08.29.593,Motor_Task,2023.2.2,MacIntel,60.0024001,147.1541,147.6376,2,1,0.482,,,,,,,3,M,,2,4,9,49,2,1,,
,,,,,,,,,,1,JDY,2023-09-24_10h08.29.593,Motor_Task,2023.2.2,MacIntel,60.0024001,,,,,,,,,,,,,,,,,,,,,147.6383,151.6387