Trigger.started,Trigger.stopped,key_resp_4.keys,key_resp_4.rt,key_resp_4.duration,mouse.x,mouse.y,mouse.leftButton,mouse.midButton,mouse.rightButton,Session,Subject,date,expName,psychopyVersion,OS,frameRate,complex_block.started,complex_block.stopped,key_resp.keys,key_resp.corr,key_resp.rt,key_resp.duration,complex_block_loop.thisRepN,complex_block_loop.thisTrialN,complex_block_loop.thisN,complex_block_loop.thisIndex,complex_block_loop.ran,trial,finger,markerPos,correctResp,new_block_loop.thisRepN,new_block_loop.thisTrialN,new_block_loop.thisN,new_block_loop.thisIndex,new_block_loop.ran,endBuffer.started,endBuffer.stopped
0.0003,19.2875,space,19.2489,,-0.12569801,0.174817825,0,0,0,1,Lenae,2023-09-27_15h43.43.666,Motor_Task,2023.2.2,MacIntel,60.0024001,,,,,,,,,,,,,,,,,,,,,,
,,,,,,,,,,1,Lenae,2023-09-27_15h43.43.666,Motor_Task,2023.2.2,MacIntel,60.0024001,19.3135,20.1067,2,1,0.7915,,0,0,0,0,1,1,M,,2,,,,,,,
,,,,,,,,,,1,Lenae,2023-09-27_15h43.43.666,Motor_Task,2023.2.2,MacIntel,60.0024001,20.1076,20.6254,3,1,0.5172,,0,1,1,1,1,2,R,,3,,,,,,,
,,,,,,,,,,1,Lenae,2023-09-27_15h43.43.666,Motor_Task,2023.2.2,MacIntel,60.0024001,20.6257,21.356,2,1,0.7294,,0,2,2,2,1,3,M,,2,,,,,,,
,,,,,,,,,,1,Lenae,2023-09-27_15h43.43.666,Motor_Task,2023.2.2,MacIntel,60.0024001,21.3567,21.8422,3,1,0.4851,,0,3,3,3,1,4,R,,3,,,,,,,
,,,,,,,,,,1,Lenae,2023-09-27_15h43.43.666,Motor_Task,2023.2.2,MacIntel,60.0024001,21.8426,22.4395,1,1,0.5963,,0,4,4,4,1,5,I,,1,,,,,,,
,,,,,,,,,,1,Lenae,2023-09-27_15h43.43.666,Motor_Task,2023.2.2,MacIntel,60.0024001,22.4399,23.006,1,1,0.5655,,0,5,5,5,1,6,I,,1,,,,,,,
,,,,,,,,,,1,Lenae,2023-09-27_15h43.43.666,Motor_Task,2023.2.2,MacIntel,60.0024001,23.0064,23.5689,3,1,0.5615,,0,6,6,6,1,7,R,,3,,,,,,,
,,,,,,,,,,1,Lenae,2023-09-27_15h43.43.666,Motor_Task,2023.2.2,MacIntel,60.0024001,23.5692,24.0707,2,1,0.4939,,0,7,7,7,1,8,M,,2,,,,,,,
,,,,,,,,,,1,Lenae,2023-09-27_15h43.43.666,Motor_Task,2023.2.2,MacIntel,60.0024001,24.0712,24.674,4,1,0.6023,,0,8,8,8,1,9,L,,4,,,,,,,
,,,,,,,,,,1,Lenae,2023-09-27_15h43.43.666,Motor_Task,2023.2.2,MacIntel,60.0024001,24.6742,25.175,1,1,0.5005,,0,9,9,9,1,10,I,,1,,,,,,,
,,,,,,,,,,1,Lenae,2023-09-27_15h43.43.666,Motor_Task,2023.2.2,MacIntel,60.0024001,25.1753,25.7058,2,1,0.5303,,1,0,10,0,1,1,M,,2,,,,,,,
,,,,,,,,,,1,Lenae,2023-09-27_15h43.43.666,Motor_Task,2023.2.2,MacIntel,60.0024001,25.7061,26.2411,3,1,0.5348,,1,1,11,1,1,2,R,,3,,,,,,,
,,,,,,,,,,1,Lenae,2023-09-27_15h43.43.666,Motor_Task,2023.2.2,MacIntel,60.0024001,26.2413,26.7724,1,0,0.5307,,1,2,12,2,1,3,M,,2,,,,,,,
,,,,,,,,,,1,Lenae,2023-09-27_15h43.43.666,Motor_Task,2023.2.2,MacIntel,60.0024001,26.7727,27.028,2,0,0.2548,,1,3,13,3,1,4,R,,3,,,,,,,
,,,,,,,,,,1,Lenae,2023-09-27_15h43.43.666,Motor_Task,2023.2.2,MacIntel,60.0024001,27.0283,27.7525,1,1,0.72,,1,4,14,4,1,5,I,,1,,,,,,,
,,,,,,,,,,1,Lenae,2023-09-27_15h43.43.666,Motor_Task,2023.2.2,MacIntel,60.0024001,27.7528,28.2872,1,1,0.5287,,1,5,15,5,1,6,I,,1,,,,,,,
,,,,,,,,,,1,Lenae,2023-09-27_15h43.43.666,Motor_Task,2023.2.2,MacIntel,60.0024001,28.2875,28.836,3,1,0.5451,,1,6,16,6,1,7,R,,3,,,,,,,
,,,,,,,,,,1,Lenae,2023-09-27_15h43.43.666,Motor_Task,2023.2.2,MacIntel,60.0024001,28.8363,29.3569,2,1,0.5202,,1,7,17,7,1,8,M,,2,,,,,,,
,,,,,,,,,,1,Lenae,2023-09-27_15h43.43.666,Motor_Task,2023.2.2,MacIntel,60.0024001,29.3573,30.0699,4,1,0.707,,1,8,18,8,1,9,L,,4,,,,,,,
,,,,,,,,,,1,Lenae,2023-09-27_15h43.43.666,Motor_Task,2023.2.2,MacIntel,60.0024001,30.0702,30.6743,1,1,0.6033,,1,9,19,9,1,10,I,,1,,,,,,,
,,,,,,,,,,1,Lenae,2023-09-27_15h43.43.666,Motor_Task,2023.2.2,MacIntel,60.0024001,30.6747,31.3025,2,1,0.622,,2,0,20,0,1,1,M,,2,,,,,,,
,,,,,,,,,,1,Lenae,2023-09-27_15h43.43.666,Motor_Task,2023.2.2,MacIntel,60.0024001,31.3028,31.8066,3,1,0.5032,,2,1,21,1,1,2,R,,3,,,,,,,
,,,,,,,,,,1,Lenae,2023-09-27_15h43.43.666,Motor_Task,2023.2.2,MacIntel,60.0024001,31.807,32.3696,2,1,0.5568,,2,2,22,2,1,3,M,,2,,,,,,,
,,,,,,,,,,1,Lenae,2023-09-27_15h43.43.666,Motor_Task,2023.2.2,MacIntel,60.0024001,32.3699,32.889,3,1,0.5189,,2,3,23,3,1,4,R,,3,,,,,,,
,,,,,,,,,,1,Lenae,2023-09-27_15h43.43.666,Motor_Task,2023.2.2,MacIntel,60.0024001,32.8893,33.6223,1,1,0.7325,,2,4,24,4,1,5,I,,1,,,,,,,
,,,,,,,,,,1,Lenae,2023-09-27_15h43.43.666,Motor_Task,2023.2.2,MacIntel,60.0024001,33.6226,34.2559,1,1,0.6328,,2,5,25,5,1,6,I,,1,,,,,,,
,,,,,,,,,,1,Lenae,2023-09-27_15h43.43.666,Motor_Task,2023.2.2,MacIntel,60.0024001,34.2563,34.825,3,1,0.5683,,2,6,26,6,1,7,R,,3,,,,,,,
,,,,,,,,,,1,Lenae,2023-09-27_15h43.43.666,Motor_Task,2023.2.2,MacIntel,60.0024001,34.8252,35.3563,2,1,0.5307,,2,7,27,7,1,8,M,,2,,,,,,,
,,,,,,,,,,1,Lenae,2023-09-27_15h43.43.666,Motor_Task,2023.2.2,MacIntel,60.0024001,35.3565,36.0035,4,1,0.6396,,2,8,28,8,1,9,L,,4,,,,,,,
,,,,,,,,,,1,Lenae,2023-09-27_15h43.43.666,Motor_Task,2023.2.2,MacIntel,60.0024001,36.0038,36.4862,1,1,0.4781,,2,9,29,9,1,10,I,,1,,,,,,,
,,,,,,,,,,1,Lenae,2023-09-27_15h43.43.666,Motor_Task,2023.2.2,MacIntel,60.0024001,36.4866,37.0071,2,1,0.5203,,3,0,30,0,1,1,M,,2,,,,,,,
,,,,,,,,,,1,Lenae,2023-09-27_15h43.43.666,Motor_Task,2023.2.2,MacIntel,60.0024001,37.0073,37.5387,3,1,0.5311,,3,1,31,1,1,2,R,,3,,,,,,,
,,,,,,,,,,1,Lenae,2023-09-27_15h43.43.666,Motor_Task,2023.2.2,MacIntel,60.0024001,37.5389,38.0712,2,1,0.532,,3,2,32,2,1,3,M,,2,,,,,,,
,,,,,,,,,,1,Lenae,2023-09-27_15h43.43.666,Motor_Task,2023.2.2,MacIntel,60.0024001,38.0715,38.5574,3,1,0.4856,,3,3,33,3,1,4,R,,3,,,,,,,
,,,,,,,,,,1,Lenae,2023-09-27_15h43.43.666,Motor_Task,2023.2.2,MacIntel,60.0024001,38.5576,39.0555,1,1,0.4976,,3,4,34,4,1,5,I,,1,,,,,,,
,,,,,,,,,,1,Lenae,2023-09-27_15h43.43.666,Motor_Task,2023.2.2,MacIntel,60.0024001,39.0557,39.5851,1,1,0.5241,,3,5,35,5,1,6,I,,1,,,,,,,
,,,,,,,,,,1,Lenae,2023-09-27_15h43.43.666,Motor_Task,2023.2.2,MacIntel,60.0024001,39.5854,40.1192,3,1,0.5288,,3,6,36,6,1,7,R,,3,,,,,,,
,,,,,,,,,,1,Lenae,2023-09-27_15h43.43.666,Motor_Task,2023.2.2,MacIntel,60.0024001,40.1195,40.6537,2,1,0.5256,,3,7,37,7,1,8,M,,2,,,,,,,
,,,,,,,,,,1,Lenae,2023-09-27_15h43.43.666,Motor_Task,2023.2.2,MacIntel,60.0024001,40.654,41.4203,4,1,0.7628,,3,8,38,8,1,9,L,,4,,,,,,,
,,,,,,,,,,1,Lenae,2023-09-27_15h43.43.666,Motor_Task,2023.2.2,MacIntel,60.0024001,41.4208,42.0742,1,1,0.6528,,3,9,39,9,1,10,I,,1,,,,,,,
,,,,,,,,,,1,Lenae,2023-09-27_15h43.43.666,Motor_Task,2023.2.2,MacIntel,60.0024001,42.0747,42.8071,2,1,0.732,,4,0,40,0,1,1,M,,2,,,,,,,
,,,,,,,,,,1,Lenae,2023-09-27_15h43.43.666,Motor_Task,2023.2.2,MacIntel,60.0024001,42.8074,43.2917,3,1,0.4841,,4,1,41,1,1,2,R,,3,,,,,,,
,,,,,,,,,,1,Lenae,2023-09-27_15h43.43.666,Motor_Task,2023.2.2,MacIntel,60.0024001,43.2921,43.8756,1,0,0.5831,,4,2,42,2,1,3,M,,2,,,,,,,
,,,,,,,,,,1,Lenae,2023-09-27_15h43.43.666,Motor_Task,2023.2.2,MacIntel,60.0024001,43.8761,44.4911,3,1,0.6143,,4,3,43,3,1,4,R,,3,,,,,,,
,,,,,,,,,,1,Lenae,2023-09-27_15h43.43.666,Motor_Task,2023.2.2,MacIntel,60.0024001,44.4916,45.0752,1,1,0.5831,,4,4,44,4,1,5,I,,1,,,,,,,
,,,,,,,,,,1,Lenae,2023-09-27_15h43.43.666,Motor_Task,2023.2.2,MacIntel,60.0024001,45.0755,45.575,1,1,0.4992,,4,5,45,5,1,6,I,,1,,,,,,,
,,,,,,,,,,1,Lenae,2023-09-27_15h43.43.666,Motor_Task,2023.2.2,MacIntel,60.0024001,45.5754,46.1366,3,1,0.5526,,4,6,46,6,1,7,R,,3,,,,,,,
,,,,,,,,,,1,Lenae,2023-09-27_15h43.43.666,Motor_Task,2023.2.2,MacIntel,60.0024001,46.137,46.6241,2,1,0.4862,,4,7,47,7,1,8,M,,2,,,,,,,
,,,,,,,,,,1,Lenae,2023-09-27_15h43.43.666,Motor_Task,2023.2.2,MacIntel,60.0024001,46.6245,47.3736,4,1,0.7485,,4,8,48,8,1,9,L,,4,,,,,,,
,,,,,,,,,,1,Lenae,2023-09-27_15h43.43.666,Motor_Task,2023.2.2,MacIntel,60.0024001,47.3741,47.9701,1,1,0.5906,,4,9,49,9,1,10,I,,1,,,,,,,
,,,,,,,,,,1,Lenae,2023-09-27_15h43.43.666,Motor_Task,2023.2.2,MacIntel,60.0024001,47.9705,48.4907,2,1,0.5196,,5,0,50,0,1,1,M,,2,,,,,,,
,,,,,,,,,,1,Lenae,2023-09-27_15h43.43.666,Motor_Task,2023.2.2,MacIntel,60.0024001,48.4911,49.0032,3,1,0.5041,,5,1,51,1,1,2,R,,3,,,,,,,
,,,,,,,,,,1,Lenae,2023-09-27_15h43.43.666,Motor_Task,2023.2.2,MacIntel,60.0024001,49.0036,49.5034,2,1,0.4977,,5,2,52,2,1,3,M,,2,,,,,,,
,,,,,,,,,,1,Lenae,2023-09-27_15h43.43.666,Motor_Task,2023.2.2,MacIntel,60.0024001,49.5038,49.9905,3,1,0.4862,,5,3,53,3,1,4,R,,3,,,,,,,
,,,,,,,,,,1,Lenae,2023-09-27_15h43.43.666,Motor_Task,2023.2.2,MacIntel,60.0024001,49.9909,50.5402,1,1,0.5489,,5,4,54,4,1,5,I,,1,,,,,,,
,,,,,,,,,,1,Lenae,2023-09-27_15h43.43.666,Motor_Task,2023.2.2,MacIntel,60.0024001,50.5407,51.0904,1,1,0.5494,,5,5,55,5,1,6,I,,1,,,,,,,
,,,,,,,,,,1,Lenae,2023-09-27_15h43.43.666,Motor_Task,2023.2.2,MacIntel,60.0024001,51.0907,51.6717,3,1,0.5806,,5,6,56,6,1,7,R,,3,,,,,,,
,,,,,,,,,,1,Lenae,2023-09-27_15h43.43.666,Motor_Task,2023.2.2,MacIntel,60.0024001,51.6721,52.17,2,1,0.4881,,5,7,57,7,1,8,M,,2,,,,,,,
,,,,,,,,,,1,Lenae,2023-09-27_15h43.43.666,Motor_Task,2023.2.2,MacIntel,60.0024001,52.1703,52.7534,4,1,0.5758,,5,8,58,8,1,9,L,,4,,,,,,,
,,,,,,,,,,1,Lenae,2023-09-27_15h43.43.666,Motor_Task,2023.2.2,MacIntel,60.0024001,52.7536,53.2488,1,1,0.4886,,5,9,59,9,1,10,I,,1,,,,,,,
,,,,,,,,,,1,Lenae,2023-09-27_15h43.43.666,Motor_Task,2023.2.2,MacIntel,60.0024001,53.2493,53.809,2,1,0.5569,,6,0,60,0,1,1,M,,2,,,,,,,
,,,,,,,,,,1,Lenae,2023-09-27_15h43.43.666,Motor_Task,2023.2.2,MacIntel,60.0024001,53.8093,54.3035,3,1,0.4922,,6,1,61,1,1,2,R,,3,,,,,,,
,,,,,,,,,,1,Lenae,2023-09-27_15h43.43.666,Motor_Task,2023.2.2,MacIntel,60.0024001,54.3038,54.8432,2,1,0.539,,6,2,62,2,1,3,M,,2,,,,,,,
,,,,,,,,,,1,Lenae,2023-09-27_15h43.43.666,Motor_Task,2023.2.2,MacIntel,60.0024001,54.8439,55.3754,3,1,0.5312,,6,3,63,3,1,4,R,,3,,,,,,,
,,,,,,,,,,1,Lenae,2023-09-27_15h43.43.666,Motor_Task,2023.2.2,MacIntel,60.0024001,55.3759,55.8605,1,1,0.4838,,6,4,64,4,1,5,I,,1,,,,,,,
,,,,,,,,,,1,Lenae,2023-09-27_15h43.43.666,Motor_Task,2023.2.2,MacIntel,60.0024001,55.8609,56.3768,1,1,0.5139,,6,5,65,5,1,6,I,,1,,,,,,,
,,,,,,,,,,1,Lenae,2023-09-27_15h43.43.666,Motor_Task,2023.2.2,MacIntel,60.0024001,56.3778,56.9005,2,0,0.5147,,6,6,66,6,1,7,R,,3,,,,,,,
,,,,,,,,,,1,Lenae,2023-09-27_15h43.43.666,Motor_Task,2023.2.2,MacIntel,60.0024001,56.901,57.5438,2,1,0.6416,,6,7,67,7,1,8,M,,2,,,,,,,
,,,,,,,,,,1,Lenae,2023-09-27_15h43.43.666,Motor_Task,2023.2.2,MacIntel,60.0024001,57.5452,58.0379,4,1,0.4891,,6,8,68,8,1,9,L,,4,,,,,,,
,,,,,,,,,,1,Lenae,2023-09-27_15h43.43.666,Motor_Task,2023.2.2,MacIntel,60.0024001,58.0381,58.6008,1,1,0.5258,,6,9,69,9,1,10,I,,1,,,,,,,
,,,,,,,,,,1,Lenae,2023-09-27_15h43.43.666,Motor_Task,2023.2.2,MacIntel,60.0024001,58.6015,60.8548,2,1,2.2115,0,7,0,70,0,1,1,M,,2,,,,,,,
,,,,,,,,,,1,Lenae,2023-09-27_15h43.43.666,Motor_Task,2023.2.2,MacIntel,60.0024001,60.8599,61.5512,3,1,0.6808,0.0083,7,1,71,1,1,2,R,,3,,,,,,,
,,,,,,,,,,1,Lenae,2023-09-27_15h43.43.666,Motor_Task,2023.2.2,MacIntel,60.0024001,61.5533,62.2758,2,1,0.7209,,7,2,72,2,1,3,M,,2,,,,,,,
,,,,,,,,,,1,Lenae,2023-09-27_15h43.43.666,Motor_Task,2023.2.2,MacIntel,60.0024001,62.2766,62.816,3,1,0.5374,,7,3,73,3,1,4,R,,3,,,,,,,
,,,,,,,,,,1,Lenae,2023-09-27_15h43.43.666,Motor_Task,2023.2.2,MacIntel,60.0024001,62.8174,63.358,1,1,0.5395,,7,4,74,4,1,5,I,,1,,,,,,,
,,,,,,,,,,1,Lenae,2023-09-27_15h43.43.666,Motor_Task,2023.2.2,MacIntel,60.0024001,63.3589,63.8913,1,1,0.5296,,7,5,75,5,1,6,I,,1,,,,,,,
,,,,,,,,,,1,Lenae,2023-09-27_15h43.43.666,Motor_Task,2023.2.2,MacIntel,60.0024001,63.892,64.3928,3,1,0.5005,,7,6,76,6,1,7,R,,3,,,,,,,
,,,,,,,,,,1,Lenae,2023-09-27_15h43.43.666,Motor_Task,2023.2.2,MacIntel,60.0024001,64.3958,65.1243,2,1,0.7277,0.0003,7,7,77,7,1,8,M,,2,,,,,,,
,,,,,,,,,,1,Lenae,2023-09-27_15h43.43.666,Motor_Task,2023.2.2,MacIntel,60.0024001,65.1248,65.8076,4,1,0.6822,,7,8,78,8,1,9,L,,4,,,,,,,
,,,,,,,,,,1,Lenae,2023-09-27_15h43.43.666,Motor_Task,2023.2.2,MacIntel,60.0024001,65.8079,66.2931,1,1,0.4847,,7,9,79,9,1,10,I,,1,,,,,,,
,,,,,,,,,,1,Lenae,2023-09-27_15h43.43.666,Motor_Task,2023.2.2,MacIntel,60.0024001,66.2933,67.0047,2,1,0.7111,0,8,0,80,0,1,1,M,,2,,,,,,,
,,,,,,,,,,1,Lenae,2023-09-27_15h43.43.666,Motor_Task,2023.2.2,MacIntel,60.0024001,67.0051,67.5578,3,1,0.5522,,8,1,81,1,1,2,R,,3,,,,,,,
,,,,,,,,,,1,Lenae,2023-09-27_15h43.43.666,Motor_Task,2023.2.2,MacIntel,60.0024001,67.5582,68.1089,2,1,0.5501,,8,2,82,2,1,3,M,,2,,,,,,,
,,,,,,,,,,1,Lenae,2023-09-27_15h43.43.666,Motor_Task,2023.2.2,MacIntel,60.0024001,68.1092,69.08,3,1,0.9531,0.0002,8,3,83,3,1,4,R,,3,,,,,,,
,,,,,,,,,,1,Lenae,2023-09-27_15h43.43.666,Motor_Task,2023.2.2,MacIntel,60.0024001,69.0827,69.8684,1,1,0.7811,1E-04,8,4,84,4,1,5,I,,1,,,,,,,
,,,,,,,,,,1,Lenae,2023-09-27_15h43.43.666,Motor_Task,2023.2.2,MacIntel,60.0024001,69.8686,70.4251,1,1,0.5561,,8,5,85,5,1,6,I,,1,,,,,,,
,,,,,,,,,,1,Lenae,2023-09-27_15h43.43.666,Motor_Task,2023.2.2,MacIntel,60.0024001,70.4254,70.9565,3,1,0.5308,,8,6,86,6,1,7,R,,3,,,,,,,
,,,,,,,,,,1,Lenae,2023-09-27_15h43.43.666,Motor_Task,2023.2.2,MacIntel,60.0024001,70.9569,71.7564,2,1,0.7991,,8,7,87,7,1,8,M,,2,,,,,,,
,,,,,,,,,,1,Lenae,2023-09-27_15h43.43.666,Motor_Task,2023.2.2,MacIntel,60.0024001,71.7566,72.293,4,1,0.5345,,8,8,88,8,1,9,L,,4,,,,,,,
,,,,,,,,,,1,Lenae,2023-09-27_15h43.43.666,Motor_Task,2023.2.2,MacIntel,60.0024001,72.2934,72.825,1,1,0.5311,,8,9,89,9,1,10,I,,1,,,,,,,
,,,,,,,,,,1,Lenae,2023-09-27_15h43.43.666,Motor_Task,2023.2.2,MacIntel,60.0024001,72.826,73.3589,2,1,0.5323,,9,0,90,0,1,1,M,,2,,,,,,,
,,,,,,,,,,1,Lenae,2023-09-27_15h43.43.666,Motor_Task,2023.2.2,MacIntel,60.0024001,73.3593,74.323,3,1,0.9629,1E-04,9,1,91,1,1,2,R,,3,,,,,,,
,,,,,,,,,,1,Lenae,2023-09-27_15h43.43.666,Motor_Task,2023.2.2,MacIntel,60.0024001,74.3232,74.9243,2,1,0.6006,,9,2,92,2,1,3,M,,2,,,,,,,
,,,,,,,,,,1,Lenae,2023-09-27_15h43.43.666,Motor_Task,2023.2.2,MacIntel,60.0024001,74.9246,75.6895,3,1,0.764,,9,3,93,3,1,4,R,,3,,,,,,,
,,,,,,,,,,1,Lenae,2023-09-27_15h43.43.666,Motor_Task,2023.2.2,MacIntel,60.0024001,75.6898,76.2253,1,1,0.5352,,9,4,94,4,1,5,I,,1,,,,,,,
,,,,,,,,,,1,Lenae,2023-09-27_15h43.43.666,Motor_Task,2023.2.2,MacIntel,60.0024001,76.2258,76.7528,1,1,0.5213,,9,5,95,5,1,6,I,,1,,,,,,,
,,,,,,,,,,1,Lenae,2023-09-27_15h43.43.666,Motor_Task,2023.2.2,MacIntel,60.0024001,76.7539,77.3069,3,1,0.5526,,9,6,96,6,1,7,R,,3,,,,,,,
,,,,,,,,,,1,Lenae,2023-09-27_15h43.43.666,Motor_Task,2023.2.2,MacIntel,60.0024001,77.3074,77.8021,2,1,0.4889,,9,7,97,7,1,8,M,,2,,,,,,,
,,,,,,,,,,1,Lenae,2023-09-27_15h43.43.666,Motor_Task,2023.2.2,MacIntel,60.0024001,77.8024,78.3851,4,1,0.5744,,9,8,98,8,1,9,L,,4,,,,,,,
,,,,,,,,,,1,Lenae,2023-09-27_15h43.43.666,Motor_Task,2023.2.2,MacIntel,60.0024001,78.3854,78.8728,1,1,0.4869,,9,9,99,9,1,10,I,,1,,,,,,,
,,,,,,,,,,1,Lenae,2023-09-27_15h43.43.666,Motor_Task,2023.2.2,MacIntel,60.0024001,78.8731,79.3727,2,1,0.4993,,10,0,100,0,1,1,M,,2,,,,,,,
,,,,,,,,,,1,Lenae,2023-09-27_15h43.43.666,Motor_Task,2023.2.2,MacIntel,60.0024001,79.3731,79.8767,3,1,0.5025,,10,1,101,1,1,2,R,,3,,,,,,,
,,,,,,,,,,1,Lenae,2023-09-27_15h43.43.666,Motor_Task,2023.2.2,MacIntel,60.0024001,79.8771,80.3692,2,1,0.4869,,10,2,102,2,1,3,M,,2,,,,,,,
,,,,,,,,,,1,Lenae,2023-09-27_15h43.43.666,Motor_Task,2023.2.2,MacIntel,60.0024001,80.3697,80.8574,3,1,0.4872,,10,3,103,3,1,4,R,,3,,,,,,,
,,,,,,,,,,1,Lenae,2023-09-27_15h43.43.666,Motor_Task,2023.2.2,MacIntel,60.0024001,80.8579,81.352,1,1,0.489,,10,4,104,4,1,5,I,,1,,,,,,,
,,,,,,,,,,1,Lenae,2023-09-27_15h43.43.666,Motor_Task,2023.2.2,MacIntel,60.0024001,81.3537,81.8691,1,1,0.5104,,10,5,105,5,1,6,I,,1,,,,,,,
,,,,,,,,,,1,Lenae,2023-09-27_15h43.43.666,Motor_Task,2023.2.2,MacIntel,60.0024001,81.8696,82.4559,3,1,0.5858,,10,6,106,6,1,7,R,,3,,,,,,,
,,,,,,,,,,1,Lenae,2023-09-27_15h43.43.666,Motor_Task,2023.2.2,MacIntel,60.0024001,82.4563,82.89,2,1,0.4335,,10,7,107,7,1,8,M,,2,,,,,,,
,,,,,,,,,,1,Lenae,2023-09-27_15h43.43.666,Motor_Task,2023.2.2,MacIntel,60.0024001,82.8903,83.4088,4,1,0.5179,,10,8,108,8,1,9,L,,4,,,,,,,
,,,,,,,,,,1,Lenae,2023-09-27_15h43.43.666,Motor_Task,2023.2.2,MacIntel,60.0024001,83.4092,83.9062,1,1,0.4966,,10,9,109,9,1,10,I,,1,,,,,,,
,,,,,,,,,,1,Lenae,2023-09-27_15h43.43.666,Motor_Task,2023.2.2,MacIntel,60.0024001,83.9067,84.5044,2,1,0.5974,,11,0,110,0,1,1,M,,2,,,,,,,
,,,,,,,,,,1,Lenae,2023-09-27_15h43.43.666,Motor_Task,2023.2.2,MacIntel,60.0024001,84.5049,85.0241,3,1,0.5188,,11,1,111,1,1,2,R,,3,,,,,,,
,,,,,,,,,,1,Lenae,2023-09-27_15h43.43.666,Motor_Task,2023.2.2,MacIntel,60.0024001,85.0243,85.5901,2,1,0.5653,,11,2,112,2,1,3,M,,2,,,,,,,
,,,,,,,,,,1,Lenae,2023-09-27_15h43.43.666,Motor_Task,2023.2.2,MacIntel,60.0024001,85.5906,86.0877,3,1,0.4963,,11,3,113,3,1,4,R,,3,,,,,,,
,,,,,,,,,,1,Lenae,2023-09-27_15h43.43.666,Motor_Task,2023.2.2,MacIntel,60.0024001,86.088,86.5567,1,1,0.468,,11,4,114,4,1,5,I,,1,,,,,,,
,,,,,,,,,,1,Lenae,2023-09-27_15h43.43.666,Motor_Task,2023.2.2,MacIntel,60.0024001,86.5571,87.1233,1,1,0.5657,,11,5,115,5,1,6,I,,1,,,,,,,
,,,,,,,,,,1,Lenae,2023-09-27_15h43.43.666,Motor_Task,2023.2.2,MacIntel,60.0024001,87.1237,87.7226,3,1,0.5982,,11,6,116,6,1,7,R,,3,,,,,,,
,,,,,,,,,,1,Lenae,2023-09-27_15h43.43.666,Motor_Task,2023.2.2,MacIntel,60.0024001,87.723,88.1909,2,1,0.4662,,11,7,117,7,1,8,M,,2,,,,,,,
,,,,,,,,,,1,Lenae,2023-09-27_15h43.43.666,Motor_Task,2023.2.2,MacIntel,60.0024001,88.1913,88.6892,4,1,0.4973,,11,8,118,8,1,9,L,,4,,,,,,,
,,,,,,,,,,1,Lenae,2023-09-27_15h43.43.666,Motor_Task,2023.2.2,MacIntel,60.0024001,88.6897,89.1526,1,1,0.4612,,11,9,119,9,1,10,I,,1,,,,,,,
,,,,,,,,,,1,Lenae,2023-09-27_15h43.43.666,Motor_Task,2023.2.2,MacIntel,60.0024001,89.1546,89.7076,2,1,0.5527,,12,0,120,0,1,1,M,,2,,,,,,,
,,,,,,,,,,1,Lenae,2023-09-27_15h43.43.666,Motor_Task,2023.2.2,MacIntel,60.0024001,89.708,90.1904,3,1,0.4817,,12,1,121,1,1,2,R,,3,,,,,,,
,,,,,,,,,,1,Lenae,2023-09-27_15h43.43.666,Motor_Task,2023.2.2,MacIntel,60.0024001,90.1908,90.6538,2,1,0.4578,,12,2,122,2,1,3,M,,2,,,,,,,
,,,,,,,,,,1,Lenae,2023-09-27_15h43.43.666,Motor_Task,2023.2.2,MacIntel,60.0024001,90.6543,91.1589,3,1,0.5043,,12,3,123,3,1,4,R,,3,,,,,,,
,,,,,,,,,,1,Lenae,2023-09-27_15h43.43.666,Motor_Task,2023.2.2,MacIntel,60.0024001,91.1592,91.64,1,1,0.4804,,12,4,124,4,1,5,I,,1,,,,,,,
,,,,,,,,,,1,Lenae,2023-09-27_15h43.43.666,Motor_Task,2023.2.2,MacIntel,60.0024001,91.6404,92.1182,1,1,0.473,,12,5,125,5,1,6,I,,1,,,,,,,
,,,,,,,,,,1,Lenae,2023-09-27_15h43.43.666,Motor_Task,2023.2.2,MacIntel,60.0024001,92.1184,92.5847,3,1,0.4613,,12,6,126,6,1,7,R,,3,,,,,,,
,,,,,,,,,,1,Lenae,2023-09-27_15h43.43.666,Motor_Task,2023.2.2,MacIntel,60.0024001,92.585,93.0558,2,1,0.4705,,12,7,127,7,1,8,M,,2,,,,,,,
,,,,,,,,,,1,Lenae,2023-09-27_15h43.43.666,Motor_Task,2023.2.2,MacIntel,60.0024001,93.0561,93.5247,4,1,0.4679,,12,8,128,8,1,9,L,,4,,,,,,,
,,,,,,,,,,1,Lenae,2023-09-27_15h43.43.666,Motor_Task,2023.2.2,MacIntel,60.0024001,93.5251,94.0243,1,1,0.4987,,12,9,129,9,1,10,I,,1,,,,,,,
,,,,,,,,,,1,Lenae,2023-09-27_15h43.43.666,Motor_Task,2023.2.2,MacIntel,60.0024001,94.0247,94.5234,2,1,0.4984,,13,0,130,0,1,1,M,,2,,,,,,,
,,,,,,,,,,1,Lenae,2023-09-27_15h43.43.666,Motor_Task,2023.2.2,MacIntel,60.0024001,94.5235,94.9849,3,1,0.458,,13,1,131,1,1,2,R,,3,,,,,,,
,,,,,,,,,,1,Lenae,2023-09-27_15h43.43.666,Motor_Task,2023.2.2,MacIntel,60.0024001,94.9852,95.4715,2,1,0.4858,,13,2,132,2,1,3,M,,2,,,,,,,
,,,,,,,,,,1,Lenae,2023-09-27_15h43.43.666,Motor_Task,2023.2.2,MacIntel,60.0024001,95.4718,95.9731,3,1,0.5009,,13,3,133,3,1,4,R,,3,,,,,,,
,,,,,,,,,,1,Lenae,2023-09-27_15h43.43.666,Motor_Task,2023.2.2,MacIntel,60.0024001,95.9736,96.4572,1,1,0.4832,,13,4,134,4,1,5,I,,1,,,,,,,
,,,,,,,,,,1,Lenae,2023-09-27_15h43.43.666,Motor_Task,2023.2.2,MacIntel,60.0024001,96.4575,97.0378,1,1,0.58,,13,5,135,5,1,6,I,,1,,,,,,,
,,,,,,,,,,1,Lenae,2023-09-27_15h43.43.666,Motor_Task,2023.2.2,MacIntel,60.0024001,97.038,97.3718,3,1,0.3333,,13,6,136,6,1,7,R,,3,,,,,,,
,,,,,,,,,,1,Lenae,2023-09-27_15h43.43.666,Motor_Task,2023.2.2,MacIntel,60.0024001,97.3722,97.8874,2,1,0.5082,,13,7,137,7,1,8,M,,2,,,,,,,
,,,,,,,,,,1,Lenae,2023-09-27_15h43.43.666,Motor_Task,2023.2.2,MacIntel,60.0024001,97.8875,98.3685,4,1,0.4767,,13,8,138,8,1,9,L,,4,,,,,,,
,,,,,,,,,,1,Lenae,2023-09-27_15h43.43.666,Motor_Task,2023.2.2,MacIntel,60.0024001,98.3688,98.8399,1,1,0.4707,,13,9,139,9,1,10,I,,1,,,,,,,
,,,,,,,,,,1,Lenae,2023-09-27_15h43.43.666,Motor_Task,2023.2.2,MacIntel,60.0024001,98.8402,99.2058,1,0,0.365,,14,0,140,0,1,1,M,,2,,,,,,,
,,,,,,,,,,1,Lenae,2023-09-27_15h43.43.666,Motor_Task,2023.2.2,MacIntel,60.0024001,99.2061,99.7846,3,1,0.5738,,14,1,141,1,1,2,R,,3,,,,,,,
,,,,,,,,,,1,Lenae,2023-09-27_15h43.43.666,Motor_Task,2023.2.2,MacIntel,60.0024001,99.7849,100.3396,2,1,0.5544,,14,2,142,2,1,3,M,,2,,,,,,,
,,,,,,,,,,1,Lenae,2023-09-27_15h43.43.666,Motor_Task,2023.2.2,MacIntel,60.0024001,100.34,100.8048,3,1,0.4643,,14,3,143,3,1,4,R,,3,,,,,,,
,,,,,,,,,,1,Lenae,2023-09-27_15h43.43.666,Motor_Task,2023.2.2,MacIntel,60.0024001,100.8051,101.2731,1,1,0.4675,,14,4,144,4,1,5,I,,1,,,,,,,
,,,,,,,,,,1,Lenae,2023-09-27_15h43.43.666,Motor_Task,2023.2.2,MacIntel,60.0024001,101.2734,101.8403,1,1,0.5664,,14,5,145,5,1,6,I,,1,,,,,,,
,,,,,,,,,,1,Lenae,2023-09-27_15h43.43.666,Motor_Task,2023.2.2,MacIntel,60.0024001,101.8407,102.2854,3,1,0.4379,,14,6,146,6,1,7,R,,3,,,,,,,
,,,,,,,,,,1,Lenae,2023-09-27_15h43.43.666,Motor_Task,2023.2.2,MacIntel,60.0024001,102.2857,102.8047,2,1,0.5186,,14,7,147,7,1,8,M,,2,,,,,,,
,,,,,,,,,,1,Lenae,2023-09-27_15h43.43.666,Motor_Task,2023.2.2,MacIntel,60.0024001,102.805,103.2681,4,1,0.4622,,14,8,148,8,1,9,L,,4,,,,,,,
,,,,,,,,,,1,Lenae,2023-09-27_15h43.43.666,Motor_Task,2023.2.2,MacIntel,60.0024001,103.2685,103.7517,1,1,0.4788,,14,9,149,9,1,10,I,,1,,,,,,,
,,,,,,,,,,1,Lenae,2023-09-27_15h43.43.666,Motor_Task,2023.2.2,MacIntel,60.0024001,103.7521,104.2019,2,1,0.4467,,15,0,150,0,1,1,M,,2,,,,,,,
,,,,,,,,,,1,Lenae,2023-09-27_15h43.43.666,Motor_Task,2023.2.2,MacIntel,60.0024001,104.2024,104.7052,3,1,0.5025,,15,1,151,1,1,2,R,,3,,,,,,,
,,,,,,,,,,1,Lenae,2023-09-27_15h43.43.666,Motor_Task,2023.2.2,MacIntel,60.0024001,104.7056,105.223,2,1,0.5171,,15,2,152,2,1,3,M,,2,,,,,,,
,,,,,,,,,,1,Lenae,2023-09-27_15h43.43.666,Motor_Task,2023.2.2,MacIntel,60.0024001,105.2234,105.7352,3,1,0.5109,,15,3,153,3,1,4,R,,3,,,,,,,
,,,,,,,,,,1,Lenae,2023-09-27_15h43.43.666,Motor_Task,2023.2.2,MacIntel,60.0024001,105.7358,106.2411,1,1,0.5048,,15,4,154,4,1,5,I,,1,,,,,,,
,,,,,,,,,,1,Lenae,2023-09-27_15h43.43.666,Motor_Task,2023.2.2,MacIntel,60.0024001,106.2414,106.7727,1,1,0.5308,,15,5,155,5,1,6,I,,1,,,,,,,
,,,,,,,,,,1,Lenae,2023-09-27_15h43.43.666,Motor_Task,2023.2.2,MacIntel,60.0024001,106.7732,107.2525,3,1,0.4733,,15,6,156,6,1,7,R,,3,,,,,,,
,,,,,,,,,,1,Lenae,2023-09-27_15h43.43.666,Motor_Task,2023.2.2,MacIntel,60.0024001,107.2528,107.79,2,1,0.5367,,15,7,157,7,1,8,M,,2,,,,,,,
,,,,,,,,,,1,Lenae,2023-09-27_15h43.43.666,Motor_Task,2023.2.2,MacIntel,60.0024001,107.7904,108.223,4,1,0.4322,,15,8,158,8,1,9,L,,4,,,,,,,
,,,,,,,,,,1,Lenae,2023-09-27_15h43.43.666,Motor_Task,2023.2.2,MacIntel,60.0024001,108.2235,108.6894,1,1,0.4655,,15,9,159,9,1,10,I,,1,,,,,,,
,,,,,,,,,,1,Lenae,2023-09-27_15h43.43.666,Motor_Task,2023.2.2,MacIntel,60.0024001,108.6898,109.1561,2,1,0.4658,,16,0,160,0,1,1,M,,2,,,,,,,
,,,,,,,,,,1,Lenae,2023-09-27_15h43.43.666,Motor_Task,2023.2.2,MacIntel,60.0024001,109.1566,109.5233,3,1,0.3662,,16,1,161,1,1,2,R,,3,,,,,,,
,,,,,,,,,,1,Lenae,2023-09-27_15h43.43.666,Motor_Task,2023.2.2,MacIntel,60.0024001,109.5238,110.0556,2,1,0.5311,,16,2,162,2,1,3,M,,2,,,,,,,
,,,,,,,,,,1,Lenae,2023-09-27_15h43.43.666,Motor_Task,2023.2.2,MacIntel,60.0024001,110.0561,110.4685,3,1,0.4087,,16,3,163,3,1,4,R,,3,,,,,,,
,,,,,,,,,,1,Lenae,2023-09-27_15h43.43.666,Motor_Task,2023.2.2,MacIntel,60.0024001,110.4689,110.959,1,1,0.4894,,16,4,164,4,1,5,I,,1,,,,,,,
,,,,,,,,,,1,Lenae,2023-09-27_15h43.43.666,Motor_Task,2023.2.2,MacIntel,60.0024001,110.9591,111.5069,1,1,0.547,,16,5,165,5,1,6,I,,1,,,,,,,
,,,,,,,,,,1,Lenae,2023-09-27_15h43.43.666,Motor_Task,2023.2.2,MacIntel,60.0024001,111.5073,112.0392,3,1,0.5314,,16,6,166,6,1,7,R,,3,,,,,,,
,,,,,,,,,,1,Lenae,2023-09-27_15h43.43.666,Motor_Task,2023.2.2,MacIntel,60.0024001,112.0395,112.6032,2,1,0.5573,,16,7,167,7,1,8,M,,2,,,,,,,
,,,,,,,,,,1,Lenae,2023-09-27_15h43.43.666,Motor_Task,2023.2.2,MacIntel,60.0024001,112.6035,113.1224,4,1,0.5185,,16,8,168,8,1,9,L,,4,,,,,,,
,,,,,,,,,,1,Lenae,2023-09-27_15h43.43.666,Motor_Task,2023.2.2,MacIntel,60.0024001,113.1227,113.6061,1,1,0.4829,,16,9,169,9,1,10,I,,1,,,,,,,
,,,,,,,,,,1,Lenae,2023-09-27_15h43.43.666,Motor_Task,2023.2.2,MacIntel,60.0024001,113.6065,113.9896,1,0,0.3825,,17,0,170,0,1,1,M,,2,,,,,,,
,,,,,,,,,,1,Lenae,2023-09-27_15h43.43.666,Motor_Task,2023.2.2,MacIntel,60.0024001,113.99,114.5562,3,1,0.5655,,17,1,171,1,1,2,R,,3,,,,,,,
,,,,,,,,,,1,Lenae,2023-09-27_15h43.43.666,Motor_Task,2023.2.2,MacIntel,60.0024001,114.5566,115.0692,2,1,0.5051,,17,2,172,2,1,3,M,,2,,,,,,,
,,,,,,,,,,1,Lenae,2023-09-27_15h43.43.666,Motor_Task,2023.2.2,MacIntel,60.0024001,115.0695,115.5859,3,1,0.5101,,17,3,173,3,1,4,R,,3,,,,,,,
,,,,,,,,,,1,Lenae,2023-09-27_15h43.43.666,Motor_Task,2023.2.2,MacIntel,60.0024001,115.5864,116.0739,1,1,0.487,,17,4,174,4,1,5,I,,1,,,,,,,
,,,,,,,,,,1,Lenae,2023-09-27_15h43.43.666,Motor_Task,2023.2.2,MacIntel,60.0024001,116.0742,116.6564,1,1,0.5817,,17,5,175,5,1,6,I,,1,,,,,,,
,,,,,,,,,,1,Lenae,2023-09-27_15h43.43.666,Motor_Task,2023.2.2,MacIntel,60.0024001,116.6569,117.2736,3,1,0.6162,,17,6,176,6,1,7,R,,3,,,,,,,
,,,,,,,,,,1,Lenae,2023-09-27_15h43.43.666,Motor_Task,2023.2.2,MacIntel,60.0024001,117.274,118.019,2,1,0.7405,,17,7,177,7,1,8,M,,2,,,,,,,
,,,,,,,,,,1,Lenae,2023-09-27_15h43.43.666,Motor_Task,2023.2.2,MacIntel,60.0024001,118.0193,118.5566,4,1,0.537,,17,8,178,8,1,9,L,,4,,,,,,,
,,,,,,,,,,1,Lenae,2023-09-27_15h43.43.666,Motor_Task,2023.2.2,MacIntel,60.0024001,118.557,119.0564,1,1,0.4989,,17,9,179,9,1,10,I,,1,,,,,,,
,,,,,,,,,,1,Lenae,2023-09-27_15h43.43.666,Motor_Task,2023.2.2,MacIntel,60.0024001,119.0568,119.523,2,1,0.4655,,18,0,180,0,1,1,M,,2,,,,,,,
,,,,,,,,,,1,Lenae,2023-09-27_15h43.43.666,Motor_Task,2023.2.2,MacIntel,60.0024001,119.5234,120.0053,3,1,0.4814,,18,1,181,1,1,2,R,,3,,,,,,,
,,,,,,,,,,1,Lenae,2023-09-27_15h43.43.666,Motor_Task,2023.2.2,MacIntel,60.0024001,120.0057,120.5061,2,1,0.5,,18,2,182,2,1,3,M,,2,,,,,,,
,,,,,,,,,,1,Lenae,2023-09-27_15h43.43.666,Motor_Task,2023.2.2,MacIntel,60.0024001,120.5065,121.0059,3,1,0.4988,,18,3,183,3,1,4,R,,3,,,,,,,
,,,,,,,,,,1,Lenae,2023-09-27_15h43.43.666,Motor_Task,2023.2.2,MacIntel,60.0024001,121.0064,121.523,1,1,0.5161,,18,4,184,4,1,5,I,,1,,,,,,,
,,,,,,,,,,1,Lenae,2023-09-27_15h43.43.666,Motor_Task,2023.2.2,MacIntel,60.0024001,121.5234,122.0357,1,1,0.511,,18,5,185,5,1,6,I,,1,,,,,,,
,,,,,,,,,,1,Lenae,2023-09-27_15h43.43.666,Motor_Task,2023.2.2,MacIntel,60.0024001,122.0362,122.5728,3,1,0.5362,,18,6,186,6,1,7,R,,3,,,,,,,
,,,,,,,,,,1,Lenae,2023-09-27_15h43.43.666,Motor_Task,2023.2.2,MacIntel,60.0024001,122.5733,123.0875,2,1,0.5138,,18,7,187,7,1,8,M,,2,,,,,,,
,,,,,,,,,,1,Lenae,2023-09-27_15h43.43.666,Motor_Task,2023.2.2,MacIntel,60.0024001,123.0877,123.6062,4,1,0.5178,,18,8,188,8,1,9,L,,4,,,,,,,
,,,,,,,,,,1,Lenae,2023-09-27_15h43.43.666,Motor_Task,2023.2.2,MacIntel,60.0024001,123.6067,124.1022,1,1,0.4887,,18,9,189,9,1,10,I,,1,,,,,,,
,,,,,,,,,,1,Lenae,2023-09-27_15h43.43.666,Motor_Task,2023.2.2,MacIntel,60.0024001,124.1025,124.585,2,1,0.4796,,19,0,190,0,1,1,M,,2,,,,,,,
,,,,,,,,,,1,Lenae,2023-09-27_15h43.43.666,Motor_Task,2023.2.2,MacIntel,60.0024001,124.5853,125.056,3,1,0.4702,,19,1,191,1,1,2,R,,3,,,,,,,
,,,,,,,,,,1,Lenae,2023-09-27_15h43.43.666,Motor_Task,2023.2.2,MacIntel,60.0024001,125.0565,125.5558,2,1,0.4989,,19,2,192,2,1,3,M,,2,,,,,,,
,,,,,,,,,,1,Lenae,2023-09-27_15h43.43.666,Motor_Task,2023.2.2,MacIntel,60.0024001,125.556,126.2525,3,1,0.6918,,19,3,193,3,1,4,R,,3,,,,,,,
,,,,,,,,,,1,Lenae,2023-09-27_15h43.43.666,Motor_Task,2023.2.2,MacIntel,60.0024001,126.2528,126.7394,1,1,0.4861,,19,4,194,4,1,5,I,,1,,,,,,,
,,,,,,,,,,1,Lenae,2023-09-27_15h43.43.666,Motor_Task,2023.2.2,MacIntel,60.0024001,126.7398,127.2881,1,1,0.5478,,19,5,195,5,1,6,I,,1,,,,,,,
,,,,,,,,,,1,Lenae,2023-09-27_15h43.43.666,Motor_Task,2023.2.2,MacIntel,60.0024001,127.2884,127.7854,3,1,0.4918,,19,6,196,6,1,7,R,,3,,,,,,,
,,,,,,,,,,1,Lenae,2023-09-27_15h43.43.666,Motor_Task,2023.2.2,MacIntel,60.0024001,127.7857,128.257,2,1,0.4709,,19,7,197,7,1,8,M,,2,,,,,,,
,,,,,,,,,,1,Lenae,2023-09-27_15h43.43.666,Motor_Task,2023.2.2,MacIntel,60.0024001,128.2572,128.8419,4,1,0.5844,,19,8,198,8,1,9,L,,4,,,,,,,
,,,,,,,,,,1,Lenae,2023-09-27_15h43.43.666,Motor_Task,2023.2.2,MacIntel,60.0024001,128.842,129.3394,1,1,0.4972,,19,9,199,9,1,10,I,,1,,,,,,,
,,,,,,,,,,1,Lenae,2023-09-27_15h43.43.666,Motor_Task,2023.2.2,MacIntel,60.0024001,129.3881,129.9723,1,1,0.5837,,,,,,,10,I,,1,0,0,0,9,1,,
,,,,,,,,,,1,Lenae,2023-09-27_15h43.43.666,Motor_Task,2023.2.2,MacIntel,60.0024001,129.9729,130.5515,1,1,0.5718,,,,,,,5,I,,1,0,1,1,4,1,,
,,,,,,,,,,1,Lenae,2023-09-27_15h43.43.666,Motor_Task,2023.2.2,MacIntel,60.0024001,130.5518,131.0677,3,1,0.5143,,,,,,,7,R,,3,0,2,2,6,1,,
,,,,,,,,,,1,Lenae,2023-09-27_15h43.43.666,Motor_Task,2023.2.2,MacIntel,60.0024001,131.0679,131.6024,2,1,0.5276,,,,,,,8,M,,2,0,3,3,7,1,,
,,,,,,,,,,1,Lenae,2023-09-27_15h43.43.666,Motor_Task,2023.2.2,MacIntel,60.0024001,131.6028,132.3018,4,1,0.6927,,,,,,,9,L,,4,0,4,4,8,1,,
,,,,,,,,,,1,Lenae,2023-09-27_15h43.43.666,Motor_Task,2023.2.2,MacIntel,60.0024001,132.3021,132.9019,3,1,0.5935,,,,,,,2,R,,3,0,5,5,1,1,,
,,,,,,,,,,1,Lenae,2023-09-27_15h43.43.666,Motor_Task,2023.2.2,MacIntel,60.0024001,132.9022,133.4903,3,1,0.5878,,,,,,,4,R,,3,0,6,6,3,1,,
,,,,,,,,,,1,Lenae,2023-09-27_15h43.43.666,Motor_Task,2023.2.2,MacIntel,60.0024001,133.4908,134.0392,1,1,0.5479,,,,,,,6,I,,1,0,7,7,5,1,,
,,,,,,,,,,1,Lenae,2023-09-27_15h43.43.666,Motor_Task,2023.2.2,MacIntel,60.0024001,134.0398,134.5357,2,1,0.4888,,,,,,,1,M,,2,0,8,8,0,1,,
,,,,,,,,,,1,Lenae,2023-09-27_15h43.43.666,Motor_Task,2023.2.2,MacIntel,60.0024001,134.5361,135.102,2,1,0.5593,,,,,,,3,M,,2,0,9,9,2,1,,
,,,,,,,,,,1,Lenae,2023-09-27_15h43.43.666,Motor_Task,2023.2.2,MacIntel,60.0024001,135.1024,135.6679,2,1,0.5651,,,,,,,3,M,,2,1,0,10,2,1,,
,,,,,,,,,,1,Lenae,2023-09-27_15h43.43.666,Motor_Task,2023.2.2,MacIntel,60.0024001,135.6682,136.2389,4,1,0.5705,,,,,,,9,L,,4,1,1,11,8,1,,
,,,,,,,,,,1,Lenae,2023-09-27_15h43.43.666,Motor_Task,2023.2.2,MacIntel,60.0024001,136.2392,136.722,1,1,0.4823,,,,,,,10,I,,1,1,2,12,9,1,,
,,,,,,,,,,1,Lenae,2023-09-27_15h43.43.666,Motor_Task,2023.2.2,MacIntel,60.0024001,136.7221,137.1884,2,1,0.4661,,,,,,,1,M,,2,1,3,13,0,1,,
,,,,,,,,,,1,Lenae,2023-09-27_15h43.43.666,Motor_Task,2023.2.2,MacIntel,60.0024001,137.1886,137.701,3,1,0.5083,,,,,,,7,R,,3,1,4,14,6,1,,
,,,,,,,,,,1,Lenae,2023-09-27_15h43.43.666,Motor_Task,2023.2.2,MacIntel,60.0024001,137.7013,138.3556,3,1,0.6536,,,,,,,2,R,,3,1,5,15,1,1,,
,,,,,,,,,,1,Lenae,2023-09-27_15h43.43.666,Motor_Task,2023.2.2,MacIntel,60.0024001,138.356,138.8347,1,1,0.4716,,,,,,,6,I,,1,1,6,16,5,1,,
,,,,,,,,,,1,Lenae,2023-09-27_15h43.43.666,Motor_Task,2023.2.2,MacIntel,60.0024001,138.835,139.343,2,1,0.5074,,,,,,,8,M,,2,1,7,17,7,1,,
,,,,,,,,,,1,Lenae,2023-09-27_15h43.43.666,Motor_Task,2023.2.2,MacIntel,60.0024001,139.3433,139.9545,1,1,0.6108,,,,,,,5,I,,1,1,8,18,4,1,,
,,,,,,,,,,1,Lenae,2023-09-27_15h43.43.666,Motor_Task,2023.2.2,MacIntel,60.0024001,139.9548,140.456,3,1,0.501,,,,,,,4,R,,3,1,9,19,3,1,,
,,,,,,,,,,1,Lenae,2023-09-27_15h43.43.666,Motor_Task,2023.2.2,MacIntel,60.0024001,140.4562,141.0226,1,1,0.566,,,,,,,10,I,,1,2,0,20,9,1,,
,,,,,,,,,,1,Lenae,2023-09-27_15h43.43.666,Motor_Task,2023.2.2,MacIntel,60.0024001,141.0231,141.6348,1,1,0.6088,,,,,,,6,I,,1,2,1,21,5,1,,
,,,,,,,,,,1,Lenae,2023-09-27_15h43.43.666,Motor_Task,2023.2.2,MacIntel,60.0024001,141.6352,142.1571,2,1,0.5214,,,,,,,8,M,,2,2,2,22,7,1,,
,,,,,,,,,,1,Lenae,2023-09-27_15h43.43.666,Motor_Task,2023.2.2,MacIntel,60.0024001,142.1573,142.5211,3,0,0.3633,,,,,,,3,M,,2,2,3,23,2,1,,
,,,,,,,,,,1,Lenae,2023-09-27_15h43.43.666,Motor_Task,2023.2.2,MacIntel,60.0024001,142.5214,143.1408,1,1,0.619,,,,,,,5,I,,1,2,4,24,4,1,,
,,,,,,,,,,1,Lenae,2023-09-27_15h43.43.666,Motor_Task,2023.2.2,MacIntel,60.0024001,143.1412,143.7562,4,1,0.6145,,,,,,,9,L,,4,2,5,25,8,1,,
,,,,,,,,,,1,Lenae,2023-09-27_15h43.43.666,Motor_Task,2023.2.2,MacIntel,60.0024001,143.7567,144.2561,1,0,0.499,,,,,,,2,R,,3,2,6,26,1,1,,
,,,,,,,,,,1,Lenae,2023-09-27_15h43.43.666,Motor_Task,2023.2.2,MacIntel,60.0024001,144.2566,144.9745,3,1,0.7175,,,,,,,7,R,,3,2,7,27,6,1,,
,,,,,,,,,,1,Lenae,2023-09-27_15h43.43.666,Motor_Task,2023.2.2,MacIntel,60.0024001,144.9751,145.5395,2,1,0.5638,,,,,,,1,M,,2,2,8,28,0,1,,
,,,,,,,,,,1,Lenae,2023-09-27_15h43.43.666,Motor_Task,2023.2.2,MacIntel,60.0024001,145.54,146.0507,3,1,0.5071,,,,,,,4,R,,3,2,9,29,3,1,,
,,,,,,,,,,1,Lenae,2023-09-27_15h43.43.666,Motor_Task,2023.2.2,MacIntel,60.0024001,146.051,146.585,3,1,0.5283,,,,,,,7,R,,3,3,0,30,6,1,,
,,,,,,,,,,1,Lenae,2023-09-27_15h43.43.666,Motor_Task,2023.2.2,MacIntel,60.0024001,146.5853,147.2392,2,1,0.6534,,,,,,,8,M,,2,3,1,31,7,1,,
,,,,,,,,,,1,Lenae,2023-09-27_15h43.43.666,Motor_Task,2023.2.2,MacIntel,60.0024001,147.2396,147.7391,3,1,0.4991,,,,,,,4,R,,3,3,2,32,3,1,,
,,,,,,,,,,1,Lenae,2023-09-27_15h43.43.666,Motor_Task,2023.2.2,MacIntel,60.0024001,147.7394,148.3392,1,1,0.5993,,,,,,,6,I,,1,3,3,33,5,1,,
,,,,,,,,,,1,Lenae,2023-09-27_15h43.43.666,Motor_Task,2023.2.2,MacIntel,60.0024001,148.3397,148.8888,1,1,0.5488,,,,,,,5,I,,1,3,4,34,4,1,,
,,,,,,,,,,1,Lenae,2023-09-27_15h43.43.666,Motor_Task,2023.2.2,MacIntel,60.0024001,148.8891,149.4228,2,1,0.5333,,,,,,,3,M,,2,3,5,35,2,1,,
,,,,,,,,,,1,Lenae,2023-09-27_15h43.43.666,Motor_Task,2023.2.2,MacIntel,60.0024001,149.4233,149.9521,2,1,0.5222,,,,,,,1,M,,2,3,6,36,0,1,,
,,,,,,,,,,1,Lenae,2023-09-27_15h43.43.666,Motor_Task,2023.2.2,MacIntel,60.0024001,149.9525,150.5058,1,1,0.5528,,,,,,,10,I,,1,3,7,37,9,1,,
,,,,,,,,,,1,Lenae,2023-09-27_15h43.43.666,Motor_Task,2023.2.2,MacIntel,60.0024001,150.5063,151.2389,4,1,0.732,,,,,,,9,L,,4,3,8,38,8,1,,
,,,,,,,,,,1,Lenae,2023-09-27_15h43.43.666,Motor_Task,2023.2.2,MacIntel,60.0024001,151.2394,151.734,3,1,0.4934,,,,,,,2,R,,3,3,9,39,1,1,,
,,,,,,,,,,1,Lenae,2023-09-27_15h43.43.666,Motor_Task,2023.2.2,MacIntel,60.0024001,151.7345,152.37,1,1,0.6348,,,,,,,5,I,,1,4,0,40,4,1,,
,,,,,,,,,,1,Lenae,2023-09-27_15h43.43.666,Motor_Task,2023.2.2,MacIntel,60.0024001,152.3703,152.9227,3,1,0.5519,,,,,,,7,R,,3,4,1,41,6,1,,
,,,,,,,,,,1,Lenae,2023-09-27_15h43.43.666,Motor_Task,2023.2.2,MacIntel,60.0024001,152.9231,153.4557,1,1,0.5322,,,,,,,6,I,,1,4,2,42,5,1,,
,,,,,,,,,,1,Lenae,2023-09-27_15h43.43.666,Motor_Task,2023.2.2,MacIntel,60.0024001,153.4562,153.9731,3,1,0.5162,,,,,,,4,R,,3,4,3,43,3,1,,
,,,,,,,,,,1,Lenae,2023-09-27_15h43.43.666,Motor_Task,2023.2.2,MacIntel,60.0024001,153.9734,154.5558,2,1,0.5818,,,,,,,1,M,,2,4,4,44,0,1,,
,,,,,,,,,,1,Lenae,2023-09-27_15h43.43.666,Motor_Task,2023.2.2,MacIntel,60.0024001,154.5563,155.2883,2,1,0.7315,,,,,,,3,M,,2,4,5,45,2,1,,
,,,,,,,,,,1,Lenae,2023-09-27_15h43.43.666,Motor_Task,2023.2.2,MacIntel,60.0024001,155.2887,155.8063,1,1,0.5172,,,,,,,10,I,,1,4,6,46,9,1,,
,,,,,,,,,,1,Lenae,2023-09-27_15h43.43.666,Motor_Task,2023.2.2,MacIntel,60.0024001,155.8066,156.4681,4,1,0.6546,,,,,,,9,L,,4,4,7,47,8,1,,
,,,,,,,,,,1,Lenae,2023-09-27_15h43.43.666,Motor_Task,2023.2.2,MacIntel,60.0024001,156.4685,157.0557,3,1,0.5867,,,,,,,2,R,,3,4,8,48,1,1,,
,,,,,,,,,,1,Lenae,2023-09-27_15h43.43.666,Motor_Task,2023.2.2,MacIntel,60.0024001,157.0561,157.5724,2,1,0.5156,,,,,,,8,M,,2,4,9,49,7,1,,
,,,,,,,,,,1,Lenae,2023-09-27_15h43.43.666,Motor_Task,2023.2.2,MacIntel,60.0024001,,,,,,,,,,,,,,,,,,,,,157.5765,161.5736