Trigger.started,Trigger.stopped,key_resp_4.keys,key_resp_4.rt,key_resp_4.duration,mouse.x,mouse.y,mouse.leftButton,mouse.midButton,mouse.rightButton,Session,Subject,date,expName,psychopyVersion,OS,frameRate,complex_block.started,complex_block.stopped,key_resp.keys,key_resp.corr,key_resp.rt,key_resp.duration,complex_block_loop.thisRepN,complex_block_loop.thisTrialN,complex_block_loop.thisN,complex_block_loop.thisIndex,complex_block_loop.ran,trial,finger,markerPos,correctResp,new_block_loop.thisRepN,new_block_loop.thisTrialN,new_block_loop.thisN,new_block_loop.thisIndex,new_block_loop.ran,endBuffer.started,endBuffer.stopped
0,15.188,space,15.14,,-0.097200622,-0.252721617,0,0,0,1,LT,2023-09-27_15h43.46.109,Motor_Task,2023.2.2,MacIntel,30.3030303,,,,,,,,,,,,,,,,,,,,,,
,,,,,,,,,,1,LT,2023-09-27_15h43.46.109,Motor_Task,2023.2.2,MacIntel,30.3030303,15.201,17.954,2,1,2.733,,0,0,0,0,1,1,M,,2,,,,,,,
,,,,,,,,,,1,LT,2023-09-27_15h43.46.109,Motor_Task,2023.2.2,MacIntel,30.3030303,17.955,19.887,3,1,1.903,,0,1,1,1,1,2,R,,3,,,,,,,
,,,,,,,,,,1,LT,2023-09-27_15h43.46.109,Motor_Task,2023.2.2,MacIntel,30.3030303,19.888,20.687,2,1,0.782,,0,2,2,2,1,3,M,,2,,,,,,,
,,,,,,,,,,1,LT,2023-09-27_15h43.46.109,Motor_Task,2023.2.2,MacIntel,30.3030303,20.687,21.487,2,0,0.789,,0,3,3,3,1,4,R,,3,,,,,,,
,,,,,,,,,,1,LT,2023-09-27_15h43.46.109,Motor_Task,2023.2.2,MacIntel,30.3030303,21.487,22.287,1,1,0.795,,0,4,4,4,1,5,I,,1,,,,,,,
,,,,,,,,,,1,LT,2023-09-27_15h43.46.109,Motor_Task,2023.2.2,MacIntel,30.3030303,22.287,22.954,1,1,0.663,,0,5,5,5,1,6,I,,1,,,,,,,
,,,,,,,,,,1,LT,2023-09-27_15h43.46.109,Motor_Task,2023.2.2,MacIntel,30.3030303,22.954,23.721,3,1,0.75,,0,6,6,6,1,7,R,,3,,,,,,,
,,,,,,,,,,1,LT,2023-09-27_15h43.46.109,Motor_Task,2023.2.2,MacIntel,30.3030303,23.721,24.421,2,1,0.69,,0,7,7,7,1,8,M,,2,,,,,,,
,,,,,,,,,,1,LT,2023-09-27_15h43.46.109,Motor_Task,2023.2.2,MacIntel,30.3030303,24.421,25.321,4,1,0.871,,0,8,8,8,1,9,L,,4,,,,,,,
,,,,,,,,,,1,LT,2023-09-27_15h43.46.109,Motor_Task,2023.2.2,MacIntel,30.3030303,25.321,26.054,1,1,0.72,,0,9,9,9,1,10,I,,1,,,,,,,
,,,,,,,,,,1,LT,2023-09-27_15h43.46.109,Motor_Task,2023.2.2,MacIntel,30.3030303,26.054,26.654,2,1,0.588,,1,0,10,0,1,1,M,,2,,,,,,,
,,,,,,,,,,1,LT,2023-09-27_15h43.46.109,Motor_Task,2023.2.2,MacIntel,30.3030303,26.654,27.286,3,1,0.615,,1,1,11,1,1,2,R,,3,,,,,,,
,,,,,,,,,,1,LT,2023-09-27_15h43.46.109,Motor_Task,2023.2.2,MacIntel,30.3030303,27.287,27.887,2,1,0.572,,1,2,12,2,1,3,M,,2,,,,,,,
,,,,,,,,,,1,LT,2023-09-27_15h43.46.109,Motor_Task,2023.2.2,MacIntel,30.3030303,27.887,28.387,3,1,0.498,,1,3,13,3,1,4,R,,3,,,,,,,
,,,,,,,,,,1,LT,2023-09-27_15h43.46.109,Motor_Task,2023.2.2,MacIntel,30.3030303,28.387,28.954,1,1,0.546,,1,4,14,4,1,5,I,,1,,,,,,,
,,,,,,,,,,1,LT,2023-09-27_15h43.46.109,Motor_Task,2023.2.2,MacIntel,30.3030303,28.954,29.521,1,1,0.539,,1,5,15,5,1,6,I,,1,,,,,,,
,,,,,,,,,,1,LT,2023-09-27_15h43.46.109,Motor_Task,2023.2.2,MacIntel,30.3030303,29.521,30.354,3,1,0.817,,1,6,16,6,1,7,R,,3,,,,,,,
,,,,,,,,,,1,LT,2023-09-27_15h43.46.109,Motor_Task,2023.2.2,MacIntel,30.3030303,30.354,30.854,2,1,0.47,,1,7,17,7,1,8,M,,2,,,,,,,
,,,,,,,,,,1,LT,2023-09-27_15h43.46.109,Motor_Task,2023.2.2,MacIntel,30.3030303,30.854,31.754,4,1,0.876,,1,8,18,8,1,9,L,,4,,,,,,,
,,,,,,,,,,1,LT,2023-09-27_15h43.46.109,Motor_Task,2023.2.2,MacIntel,30.3030303,31.754,32.354,1,1,0.585,,1,9,19,9,1,10,I,,1,,,,,,,
,,,,,,,,,,1,LT,2023-09-27_15h43.46.109,Motor_Task,2023.2.2,MacIntel,30.3030303,32.354,32.954,2,1,0.585,,2,0,20,0,1,1,M,,2,,,,,,,
,,,,,,,,,,1,LT,2023-09-27_15h43.46.109,Motor_Task,2023.2.2,MacIntel,30.3030303,32.954,33.554,3,1,0.587,,2,1,21,1,1,2,R,,3,,,,,,,
,,,,,,,,,,1,LT,2023-09-27_15h43.46.109,Motor_Task,2023.2.2,MacIntel,30.3030303,33.554,34.087,2,1,0.52,,2,2,22,2,1,3,M,,2,,,,,,,
,,,,,,,,,,1,LT,2023-09-27_15h43.46.109,Motor_Task,2023.2.2,MacIntel,30.3030303,34.087,34.587,3,1,0.471,,2,3,23,3,1,4,R,,3,,,,,,,
,,,,,,,,,,1,LT,2023-09-27_15h43.46.109,Motor_Task,2023.2.2,MacIntel,30.3030303,34.587,35.154,1,1,0.539,,2,4,24,4,1,5,I,,1,,,,,,,
,,,,,,,,,,1,LT,2023-09-27_15h43.46.109,Motor_Task,2023.2.2,MacIntel,30.3030303,35.154,35.704,1,1,0.524,,2,5,25,5,1,6,I,,1,,,,,,,
,,,,,,,,,,1,LT,2023-09-27_15h43.46.109,Motor_Task,2023.2.2,MacIntel,30.3030303,35.704,36.253,3,1,0.543,,2,6,26,6,1,7,R,,3,,,,,,,
,,,,,,,,,,1,LT,2023-09-27_15h43.46.109,Motor_Task,2023.2.2,MacIntel,30.3030303,36.254,36.754,2,1,0.487,,2,7,27,7,1,8,M,,2,,,,,,,
,,,,,,,,,,1,LT,2023-09-27_15h43.46.109,Motor_Task,2023.2.2,MacIntel,30.3030303,36.754,37.387,4,1,0.603,,2,8,28,8,1,9,L,,4,,,,,,,
,,,,,,,,,,1,LT,2023-09-27_15h43.46.109,Motor_Task,2023.2.2,MacIntel,30.3030303,37.387,37.887,1,1,0.479,,2,9,29,9,1,10,I,,1,,,,,,,
,,,,,,,,,,1,LT,2023-09-27_15h43.46.109,Motor_Task,2023.2.2,MacIntel,30.3030303,37.887,38.421,2,1,0.504,,3,0,30,0,1,1,M,,2,,,,,,,
,,,,,,,,,,1,LT,2023-09-27_15h43.46.109,Motor_Task,2023.2.2,MacIntel,30.3030303,38.421,38.986,3,1,0.542,,3,1,31,1,1,2,R,,3,,,,,,,
,,,,,,,,,,1,LT,2023-09-27_15h43.46.109,Motor_Task,2023.2.2,MacIntel,30.3030303,38.986,39.52,2,1,0.51,,3,2,32,2,1,3,M,,2,,,,,,,
,,,,,,,,,,1,LT,2023-09-27_15h43.46.109,Motor_Task,2023.2.2,MacIntel,30.3030303,39.52,40.02,3,1,0.47,,3,3,33,3,1,4,R,,3,,,,,,,
,,,,,,,,,,1,LT,2023-09-27_15h43.46.109,Motor_Task,2023.2.2,MacIntel,30.3030303,40.021,40.521,1,1,0.483,,3,4,34,4,1,5,I,,1,,,,,,,
,,,,,,,,,,1,LT,2023-09-27_15h43.46.109,Motor_Task,2023.2.2,MacIntel,30.3030303,40.521,41.021,1,1,0.487,,3,5,35,5,1,6,I,,1,,,,,,,
,,,,,,,,,,1,LT,2023-09-27_15h43.46.109,Motor_Task,2023.2.2,MacIntel,30.3030303,41.021,41.62,2,0,0.577,,3,6,36,6,1,7,R,,3,,,,,,,
,,,,,,,,,,1,LT,2023-09-27_15h43.46.109,Motor_Task,2023.2.2,MacIntel,30.3030303,41.621,41.654,3,0,0.012,,3,7,37,7,1,8,M,,2,,,,,,,
,,,,,,,,,,1,LT,2023-09-27_15h43.46.109,Motor_Task,2023.2.2,MacIntel,30.3030303,41.654,42.32,4,1,0.648,,3,8,38,8,1,9,L,,4,,,,,,,
,,,,,,,,,,1,LT,2023-09-27_15h43.46.109,Motor_Task,2023.2.2,MacIntel,30.3030303,42.32,42.987,1,1,0.645,,3,9,39,9,1,10,I,,1,,,,,,,
,,,,,,,,,,1,LT,2023-09-27_15h43.46.109,Motor_Task,2023.2.2,MacIntel,30.3030303,42.987,43.521,2,1,0.502,,4,0,40,0,1,1,M,,2,,,,,,,
,,,,,,,,,,1,LT,2023-09-27_15h43.46.109,Motor_Task,2023.2.2,MacIntel,30.3030303,43.521,44.02,3,1,0.477,,4,1,41,1,1,2,R,,3,,,,,,,
,,,,,,,,,,1,LT,2023-09-27_15h43.46.109,Motor_Task,2023.2.2,MacIntel,30.3030303,44.02,44.554,2,1,0.51,,4,2,42,2,1,3,M,,2,,,,,,,
,,,,,,,,,,1,LT,2023-09-27_15h43.46.109,Motor_Task,2023.2.2,MacIntel,30.3030303,44.554,45.187,3,1,0.628,,4,3,43,3,1,4,R,,3,,,,,,,
,,,,,,,,,,1,LT,2023-09-27_15h43.46.109,Motor_Task,2023.2.2,MacIntel,30.3030303,45.187,45.72,1,1,0.518,,4,4,44,4,1,5,I,,1,,,,,,,
,,,,,,,,,,1,LT,2023-09-27_15h43.46.109,Motor_Task,2023.2.2,MacIntel,30.3030303,45.721,46.354,1,1,0.621,,4,5,45,5,1,6,I,,1,,,,,,,
,,,,,,,,,,1,LT,2023-09-27_15h43.46.109,Motor_Task,2023.2.2,MacIntel,30.3030303,46.354,46.887,3,1,0.519,,4,6,46,6,1,7,R,,3,,,,,,,
,,,,,,,,,,1,LT,2023-09-27_15h43.46.109,Motor_Task,2023.2.2,MacIntel,30.3030303,46.887,47.52,2,1,0.628,,4,7,47,7,1,8,M,,2,,,,,,,
,,,,,,,,,,1,LT,2023-09-27_15h43.46.109,Motor_Task,2023.2.2,MacIntel,30.3030303,47.521,48.121,4,1,0.578,,4,8,48,8,1,9,L,,4,,,,,,,
,,,,,,,,,,1,LT,2023-09-27_15h43.46.109,Motor_Task,2023.2.2,MacIntel,30.3030303,48.121,48.621,1,1,0.489,,4,9,49,9,1,10,I,,1,,,,,,,
,,,,,,,,,,1,LT,2023-09-27_15h43.46.109,Motor_Task,2023.2.2,MacIntel,30.3030303,48.621,49.187,2,1,0.564,,5,0,50,0,1,1,M,,2,,,,,,,
,,,,,,,,,,1,LT,2023-09-27_15h43.46.109,Motor_Task,2023.2.2,MacIntel,30.3030303,49.187,49.786,3,1,0.588,,5,1,51,1,1,2,R,,3,,,,,,,
,,,,,,,,,,1,LT,2023-09-27_15h43.46.109,Motor_Task,2023.2.2,MacIntel,30.3030303,49.787,50.454,2,1,0.643,,5,2,52,2,1,3,M,,2,,,,,,,
,,,,,,,,,,1,LT,2023-09-27_15h43.46.109,Motor_Task,2023.2.2,MacIntel,30.3030303,50.454,50.987,3,1,0.502,,5,3,53,3,1,4,R,,3,,,,,,,
,,,,,,,,,,1,LT,2023-09-27_15h43.46.109,Motor_Task,2023.2.2,MacIntel,30.3030303,50.987,51.487,1,1,0.499,,5,4,54,4,1,5,I,,1,,,,,,,
,,,,,,,,,,1,LT,2023-09-27_15h43.46.109,Motor_Task,2023.2.2,MacIntel,30.3030303,51.487,52.02,1,1,0.511,,5,5,55,5,1,6,I,,1,,,,,,,
,,,,,,,,,,1,LT,2023-09-27_15h43.46.109,Motor_Task,2023.2.2,MacIntel,30.3030303,52.021,52.52,3,1,0.484,,5,6,56,6,1,7,R,,3,,,,,,,
,,,,,,,,,,1,LT,2023-09-27_15h43.46.109,Motor_Task,2023.2.2,MacIntel,30.3030303,52.521,53.021,2,1,0.494,,5,7,57,7,1,8,M,,2,,,,,,,
,,,,,,,,,,1,LT,2023-09-27_15h43.46.109,Motor_Task,2023.2.2,MacIntel,30.3030303,53.021,53.654,4,1,0.615,,5,8,58,8,1,9,L,,4,,,,,,,
,,,,,,,,,,1,LT,2023-09-27_15h43.46.109,Motor_Task,2023.2.2,MacIntel,30.3030303,53.654,54.12,1,1,0.46,,5,9,59,9,1,10,I,,1,,,,,,,
,,,,,,,,,,1,LT,2023-09-27_15h43.46.109,Motor_Task,2023.2.2,MacIntel,30.3030303,54.12,54.687,2,1,0.561,,6,0,60,0,1,1,M,,2,,,,,,,
,,,,,,,,,,1,LT,2023-09-27_15h43.46.109,Motor_Task,2023.2.2,MacIntel,30.3030303,54.687,55.221,3,1,0.504,,6,1,61,1,1,2,R,,3,,,,,,,
,,,,,,,,,,1,LT,2023-09-27_15h43.46.109,Motor_Task,2023.2.2,MacIntel,30.3030303,55.221,55.754,2,1,0.522,,6,2,62,2,1,3,M,,2,,,,,,,
,,,,,,,,,,1,LT,2023-09-27_15h43.46.109,Motor_Task,2023.2.2,MacIntel,30.3030303,55.754,56.186,3,1,0.419,,6,3,63,3,1,4,R,,3,,,,,,,
,,,,,,,,,,1,LT,2023-09-27_15h43.46.109,Motor_Task,2023.2.2,MacIntel,30.3030303,56.187,56.754,1,1,0.543,,6,4,64,4,1,5,I,,1,,,,,,,
,,,,,,,,,,1,LT,2023-09-27_15h43.46.109,Motor_Task,2023.2.2,MacIntel,30.3030303,56.754,57.287,1,1,0.511,,6,5,65,5,1,6,I,,1,,,,,,,
,,,,,,,,,,1,LT,2023-09-27_15h43.46.109,Motor_Task,2023.2.2,MacIntel,30.3030303,57.287,57.787,3,1,0.485,,6,6,66,6,1,7,R,,3,,,,,,,
,,,,,,,,,,1,LT,2023-09-27_15h43.46.109,Motor_Task,2023.2.2,MacIntel,30.3030303,57.787,58.286,2,1,0.472,,6,7,67,7,1,8,M,,2,,,,,,,
,,,,,,,,,,1,LT,2023-09-27_15h43.46.109,Motor_Task,2023.2.2,MacIntel,30.3030303,58.286,58.687,3,0,0.371,,6,8,68,8,1,9,L,,4,,,,,,,
,,,,,,,,,,1,LT,2023-09-27_15h43.46.109,Motor_Task,2023.2.2,MacIntel,30.3030303,58.687,59.32,1,1,0.611,,6,9,69,9,1,10,I,,1,,,,,,,
,,,,,,,,,,1,LT,2023-09-27_15h43.46.109,Motor_Task,2023.2.2,MacIntel,30.3030303,59.321,59.887,2,1,0.565,,7,0,70,0,1,1,M,,2,,,,,,,
,,,,,,,,,,1,LT,2023-09-27_15h43.46.109,Motor_Task,2023.2.2,MacIntel,30.3030303,59.888,60.387,3,1,0.491,,7,1,71,1,1,2,R,,3,,,,,,,
,,,,,,,,,,1,LT,2023-09-27_15h43.46.109,Motor_Task,2023.2.2,MacIntel,30.3030303,60.387,60.887,2,1,0.479,,7,2,72,2,1,3,M,,2,,,,,,,
,,,,,,,,,,1,LT,2023-09-27_15h43.46.109,Motor_Task,2023.2.2,MacIntel,30.3030303,60.887,61.353,3,1,0.461,,7,3,73,3,1,4,R,,3,,,,,,,
,,,,,,,,,,1,LT,2023-09-27_15h43.46.109,Motor_Task,2023.2.2,MacIntel,30.3030303,61.353,61.887,1,1,0.512,,7,4,74,4,1,5,I,,1,,,,,,,
,,,,,,,,,,1,LT,2023-09-27_15h43.46.109,Motor_Task,2023.2.2,MacIntel,30.3030303,61.887,62.421,1,1,0.511,,7,5,75,5,1,6,I,,1,,,,,,,
,,,,,,,,,,1,LT,2023-09-27_15h43.46.109,Motor_Task,2023.2.2,MacIntel,30.3030303,62.421,62.954,3,1,0.508,,7,6,76,6,1,7,R,,3,,,,,,,
,,,,,,,,,,1,LT,2023-09-27_15h43.46.109,Motor_Task,2023.2.2,MacIntel,30.3030303,62.954,63.454,2,1,0.484,,7,7,77,7,1,8,M,,2,,,,,,,
,,,,,,,,,,1,LT,2023-09-27_15h43.46.109,Motor_Task,2023.2.2,MacIntel,30.3030303,63.454,64.054,4,1,0.576,,7,8,78,8,1,9,L,,4,,,,,,,
,,,,,,,,,,1,LT,2023-09-27_15h43.46.109,Motor_Task,2023.2.2,MacIntel,30.3030303,64.054,64.554,1,1,0.472,,7,9,79,9,1,10,I,,1,,,,,,,
,,,,,,,,,,1,LT,2023-09-27_15h43.46.109,Motor_Task,2023.2.2,MacIntel,30.3030303,64.554,65.12,2,1,0.559,,8,0,80,0,1,1,M,,2,,,,,,,
,,,,,,,,,,1,LT,2023-09-27_15h43.46.109,Motor_Task,2023.2.2,MacIntel,30.3030303,65.121,65.654,3,1,0.531,,8,1,81,1,1,2,R,,3,,,,,,,
,,,,,,,,,,1,LT,2023-09-27_15h43.46.109,Motor_Task,2023.2.2,MacIntel,30.3030303,65.654,66.321,2,1,0.645,,8,2,82,2,1,3,M,,2,,,,,,,
,,,,,,,,,,1,LT,2023-09-27_15h43.46.109,Motor_Task,2023.2.2,MacIntel,30.3030303,66.321,66.754,3,1,0.422,,8,3,83,3,1,4,R,,3,,,,,,,
,,,,,,,,,,1,LT,2023-09-27_15h43.46.109,Motor_Task,2023.2.2,MacIntel,30.3030303,66.754,67.287,1,1,0.502,,8,4,84,4,1,5,I,,1,,,,,,,
,,,,,,,,,,1,LT,2023-09-27_15h43.46.109,Motor_Task,2023.2.2,MacIntel,30.3030303,67.287,67.82,1,1,0.524,,8,5,85,5,1,6,I,,1,,,,,,,
,,,,,,,,,,1,LT,2023-09-27_15h43.46.109,Motor_Task,2023.2.2,MacIntel,30.3030303,67.821,68.354,3,1,0.516,,8,6,86,6,1,7,R,,3,,,,,,,
,,,,,,,,,,1,LT,2023-09-27_15h43.46.109,Motor_Task,2023.2.2,MacIntel,30.3030303,68.354,68.853,2,1,0.485,,8,7,87,7,1,8,M,,2,,,,,,,
,,,,,,,,,,1,LT,2023-09-27_15h43.46.109,Motor_Task,2023.2.2,MacIntel,30.3030303,68.853,69.42,4,1,0.557,,8,8,88,8,1,9,L,,4,,,,,,,
,,,,,,,,,,1,LT,2023-09-27_15h43.46.109,Motor_Task,2023.2.2,MacIntel,30.3030303,69.421,69.887,1,1,0.444,,8,9,89,9,1,10,I,,1,,,,,,,
,,,,,,,,,,1,LT,2023-09-27_15h43.46.109,Motor_Task,2023.2.2,MacIntel,30.3030303,69.887,70.454,2,1,0.563,,9,0,90,0,1,1,M,,2,,,,,,,
,,,,,,,,,,1,LT,2023-09-27_15h43.46.109,Motor_Task,2023.2.2,MacIntel,30.3030303,70.454,71.087,3,1,0.611,,9,1,91,1,1,2,R,,3,,,,,,,
,,,,,,,,,,1,LT,2023-09-27_15h43.46.109,Motor_Task,2023.2.2,MacIntel,30.3030303,71.087,71.554,2,1,0.453,,9,2,92,2,1,3,M,,2,,,,,,,
,,,,,,,,,,1,LT,2023-09-27_15h43.46.109,Motor_Task,2023.2.2,MacIntel,30.3030303,71.554,71.987,3,1,0.403,,9,3,93,3,1,4,R,,3,,,,,,,
,,,,,,,,,,1,LT,2023-09-27_15h43.46.109,Motor_Task,2023.2.2,MacIntel,30.3030303,71.987,72.454,1,1,0.467,,9,4,94,4,1,5,I,,1,,,,,,,
,,,,,,,,,,1,LT,2023-09-27_15h43.46.109,Motor_Task,2023.2.2,MacIntel,30.3030303,72.454,72.954,1,1,0.471,,9,5,95,5,1,6,I,,1,,,,,,,
,,,,,,,,,,1,LT,2023-09-27_15h43.46.109,Motor_Task,2023.2.2,MacIntel,30.3030303,72.954,73.454,3,1,0.488,,9,6,96,6,1,7,R,,3,,,,,,,
,,,,,,,,,,1,LT,2023-09-27_15h43.46.109,Motor_Task,2023.2.2,MacIntel,30.3030303,73.454,73.921,2,1,0.453,,9,7,97,7,1,8,M,,2,,,,,,,
,,,,,,,,,,1,LT,2023-09-27_15h43.46.109,Motor_Task,2023.2.2,MacIntel,30.3030303,73.921,74.521,4,1,0.575,,9,8,98,8,1,9,L,,4,,,,,,,
,,,,,,,,,,1,LT,2023-09-27_15h43.46.109,Motor_Task,2023.2.2,MacIntel,30.3030303,74.521,75.02,1,1,0.488,,9,9,99,9,1,10,I,,1,,,,,,,
,,,,,,,,,,1,LT,2023-09-27_15h43.46.109,Motor_Task,2023.2.2,MacIntel,30.3030303,75.021,75.92,2,1,0.872,,10,0,100,0,1,1,M,,2,,,,,,,
,,,,,,,,,,1,LT,2023-09-27_15h43.46.109,Motor_Task,2023.2.2,MacIntel,30.3030303,75.921,76.587,3,1,0.661,,10,1,101,1,1,2,R,,3,,,,,,,
,,,,,,,,,,1,LT,2023-09-27_15h43.46.109,Motor_Task,2023.2.2,MacIntel,30.3030303,76.587,77.321,2,1,0.71,,10,2,102,2,1,3,M,,2,,,,,,,
,,,,,,,,,,1,LT,2023-09-27_15h43.46.109,Motor_Task,2023.2.2,MacIntel,30.3030303,77.321,78.387,3,1,1.056,,10,3,103,3,1,4,R,,3,,,,,,,
,,,,,,,,,,1,LT,2023-09-27_15h43.46.109,Motor_Task,2023.2.2,MacIntel,30.3030303,78.387,78.954,1,1,0.558,,10,4,104,4,1,5,I,,1,,,,,,,
,,,,,,,,,,1,LT,2023-09-27_15h43.46.109,Motor_Task,2023.2.2,MacIntel,30.3030303,78.954,79.454,1,1,0.496,,10,5,105,5,1,6,I,,1,,,,,,,
,,,,,,,,,,1,LT,2023-09-27_15h43.46.109,Motor_Task,2023.2.2,MacIntel,30.3030303,79.454,79.954,3,1,0.5,,10,6,106,6,1,7,R,,3,,,,,,,
,,,,,,,,,,1,LT,2023-09-27_15h43.46.109,Motor_Task,2023.2.2,MacIntel,30.3030303,79.954,80.454,2,1,0.468,,10,7,107,7,1,8,M,,2,,,,,,,
,,,,,,,,,,1,LT,2023-09-27_15h43.46.109,Motor_Task,2023.2.2,MacIntel,30.3030303,80.454,80.987,4,1,0.526,,10,8,108,8,1,9,L,,4,,,,,,,
,,,,,,,,,,1,LT,2023-09-27_15h43.46.109,Motor_Task,2023.2.2,MacIntel,30.3030303,80.987,81.587,1,1,0.584,,10,9,109,9,1,10,I,,1,,,,,,,
,,,,,,,,,,1,LT,2023-09-27_15h43.46.109,Motor_Task,2023.2.2,MacIntel,30.3030303,81.587,82.187,2,1,0.571,,11,0,110,0,1,1,M,,2,,,,,,,
,,,,,,,,,,1,LT,2023-09-27_15h43.46.109,Motor_Task,2023.2.2,MacIntel,30.3030303,82.187,82.721,3,1,0.516,,11,1,111,1,1,2,R,,3,,,,,,,
,,,,,,,,,,1,LT,2023-09-27_15h43.46.109,Motor_Task,2023.2.2,MacIntel,30.3030303,82.721,83.221,2,1,0.49,,11,2,112,2,1,3,M,,2,,,,,,,
,,,,,,,,,,1,LT,2023-09-27_15h43.46.109,Motor_Task,2023.2.2,MacIntel,30.3030303,83.221,83.654,3,1,0.426,,11,3,113,3,1,4,R,,3,,,,,,,
,,,,,,,,,,1,LT,2023-09-27_15h43.46.109,Motor_Task,2023.2.2,MacIntel,30.3030303,83.654,84.154,1,1,0.483,,11,4,114,4,1,5,I,,1,,,,,,,
,,,,,,,,,,1,LT,2023-09-27_15h43.46.109,Motor_Task,2023.2.2,MacIntel,30.3030303,84.154,84.72,1,1,0.543,,11,5,115,5,1,6,I,,1,,,,,,,
,,,,,,,,,,1,LT,2023-09-27_15h43.46.109,Motor_Task,2023.2.2,MacIntel,30.3030303,84.721,85.187,3,1,0.462,,11,6,116,6,1,7,R,,3,,,,,,,
,,,,,,,,,,1,LT,2023-09-27_15h43.46.109,Motor_Task,2023.2.2,MacIntel,30.3030303,85.187,85.72,2,1,0.514,,11,7,117,7,1,8,M,,2,,,,,,,
,,,,,,,,,,1,LT,2023-09-27_15h43.46.109,Motor_Task,2023.2.2,MacIntel,30.3030303,85.721,86.254,4,1,0.504,,11,8,118,8,1,9,L,,4,,,,,,,
,,,,,,,,,,1,LT,2023-09-27_15h43.46.109,Motor_Task,2023.2.2,MacIntel,30.3030303,86.254,86.754,1,1,0.491,,11,9,119,9,1,10,I,,1,,,,,,,
,,,,,,,,,,1,LT,2023-09-27_15h43.46.109,Motor_Task,2023.2.2,MacIntel,30.3030303,86.754,87.387,1,0,0.63,,12,0,120,0,1,1,M,,2,,,,,,,
,,,,,,,,,,1,LT,2023-09-27_15h43.46.109,Motor_Task,2023.2.2,MacIntel,30.3030303,87.387,88.154,3,1,0.755,,12,1,121,1,1,2,R,,3,,,,,,,
,,,,,,,,,,1,LT,2023-09-27_15h43.46.109,Motor_Task,2023.2.2,MacIntel,30.3030303,88.154,88.754,2,1,0.586,,12,2,122,2,1,3,M,,2,,,,,,,
,,,,,,,,,,1,LT,2023-09-27_15h43.46.109,Motor_Task,2023.2.2,MacIntel,30.3030303,88.754,89.286,3,1,0.522,,12,3,123,3,1,4,R,,3,,,,,,,
,,,,,,,,,,1,LT,2023-09-27_15h43.46.109,Motor_Task,2023.2.2,MacIntel,30.3030303,89.287,90.054,1,1,0.763,,12,4,124,4,1,5,I,,1,,,,,,,
,,,,,,,,,,1,LT,2023-09-27_15h43.46.109,Motor_Task,2023.2.2,MacIntel,30.3030303,90.054,90.62,1,1,0.558,,12,5,125,5,1,6,I,,1,,,,,,,
,,,,,,,,,,1,LT,2023-09-27_15h43.46.109,Motor_Task,2023.2.2,MacIntel,30.3030303,90.621,91.286,3,1,0.649,,12,6,126,6,1,7,R,,3,,,,,,,
,,,,,,,,,,1,LT,2023-09-27_15h43.46.109,Motor_Task,2023.2.2,MacIntel,30.3030303,91.286,91.754,2,1,0.444,,12,7,127,7,1,8,M,,2,,,,,,,
,,,,,,,,,,1,LT,2023-09-27_15h43.46.109,Motor_Task,2023.2.2,MacIntel,30.3030303,91.754,92.354,4,1,0.577,,12,8,128,8,1,9,L,,4,,,,,,,
,,,,,,,,,,1,LT,2023-09-27_15h43.46.109,Motor_Task,2023.2.2,MacIntel,30.3030303,92.354,93.021,1,1,0.639,,12,9,129,9,1,10,I,,1,,,,,,,
,,,,,,,,,,1,LT,2023-09-27_15h43.46.109,Motor_Task,2023.2.2,MacIntel,30.3030303,93.021,93.554,2,1,0.515,,13,0,130,0,1,1,M,,2,,,,,,,
,,,,,,,,,,1,LT,2023-09-27_15h43.46.109,Motor_Task,2023.2.2,MacIntel,30.3030303,93.554,94.087,3,1,0.533,,13,1,131,1,1,2,R,,3,,,,,,,
,,,,,,,,,,1,LT,2023-09-27_15h43.46.109,Motor_Task,2023.2.2,MacIntel,30.3030303,94.087,94.586,2,1,0.479,,13,2,132,2,1,3,M,,2,,,,,,,
,,,,,,,,,,1,LT,2023-09-27_15h43.46.109,Motor_Task,2023.2.2,MacIntel,30.3030303,94.587,95.054,3,1,0.436,,13,3,133,3,1,4,R,,3,,,,,,,
,,,,,,,,,,1,LT,2023-09-27_15h43.46.109,Motor_Task,2023.2.2,MacIntel,30.3030303,95.054,95.553,1,1,0.476,,13,4,134,4,1,5,I,,1,,,,,,,
,,,,,,,,,,1,LT,2023-09-27_15h43.46.109,Motor_Task,2023.2.2,MacIntel,30.3030303,95.553,96.02,1,1,0.454,,13,5,135,5,1,6,I,,1,,,,,,,
,,,,,,,,,,1,LT,2023-09-27_15h43.46.109,Motor_Task,2023.2.2,MacIntel,30.3030303,96.021,96.587,3,1,0.543,,13,6,136,6,1,7,R,,3,,,,,,,
,,,,,,,,,,1,LT,2023-09-27_15h43.46.109,Motor_Task,2023.2.2,MacIntel,30.3030303,96.588,97.121,2,1,0.528,,13,7,137,7,1,8,M,,2,,,,,,,
,,,,,,,,,,1,LT,2023-09-27_15h43.46.109,Motor_Task,2023.2.2,MacIntel,30.3030303,97.121,97.687,4,1,0.549,,13,8,138,8,1,9,L,,4,,,,,,,
,,,,,,,,,,1,LT,2023-09-27_15h43.46.109,Motor_Task,2023.2.2,MacIntel,30.3030303,97.687,98.287,1,1,0.569,,13,9,139,9,1,10,I,,1,,,,,,,
,,,,,,,,,,1,LT,2023-09-27_15h43.46.109,Motor_Task,2023.2.2,MacIntel,30.3030303,98.287,98.921,2,1,0.63,,14,0,140,0,1,1,M,,2,,,,,,,
,,,,,,,,,,1,LT,2023-09-27_15h43.46.109,Motor_Task,2023.2.2,MacIntel,30.3030303,98.921,99.454,3,1,0.526,,14,1,141,1,1,2,R,,3,,,,,,,
,,,,,,,,,,1,LT,2023-09-27_15h43.46.109,Motor_Task,2023.2.2,MacIntel,30.3030303,99.454,100.02,2,1,0.548,,14,2,142,2,1,3,M,,2,,,,,,,
,,,,,,,,,,1,LT,2023-09-27_15h43.46.109,Motor_Task,2023.2.2,MacIntel,30.3030303,100.02,100.587,3,1,0.536,,14,3,143,3,1,4,R,,3,,,,,,,
,,,,,,,,,,1,LT,2023-09-27_15h43.46.109,Motor_Task,2023.2.2,MacIntel,30.3030303,100.587,101.054,1,1,0.445,,14,4,144,4,1,5,I,,1,,,,,,,
,,,,,,,,,,1,LT,2023-09-27_15h43.46.109,Motor_Task,2023.2.2,MacIntel,30.3030303,101.054,101.52,1,1,0.457,,14,5,145,5,1,6,I,,1,,,,,,,
,,,,,,,,,,1,LT,2023-09-27_15h43.46.109,Motor_Task,2023.2.2,MacIntel,30.3030303,101.521,102.021,3,1,0.481,,14,6,146,6,1,7,R,,3,,,,,,,
,,,,,,,,,,1,LT,2023-09-27_15h43.46.109,Motor_Task,2023.2.2,MacIntel,30.3030303,102.021,102.62,2,1,0.596,,14,7,147,7,1,8,M,,2,,,,,,,
,,,,,,,,,,1,LT,2023-09-27_15h43.46.109,Motor_Task,2023.2.2,MacIntel,30.3030303,102.621,103.254,4,1,0.605,,14,8,148,8,1,9,L,,4,,,,,,,
,,,,,,,,,,1,LT,2023-09-27_15h43.46.109,Motor_Task,2023.2.2,MacIntel,30.3030303,103.254,103.787,1,1,0.521,,14,9,149,9,1,10,I,,1,,,,,,,
,,,,,,,,,,1,LT,2023-09-27_15h43.46.109,Motor_Task,2023.2.2,MacIntel,30.3030303,103.787,104.387,2,1,0.597,,15,0,150,0,1,1,M,,2,,,,,,,
,,,,,,,,,,1,LT,2023-09-27_15h43.46.109,Motor_Task,2023.2.2,MacIntel,30.3030303,104.387,104.987,3,1,0.585,,15,1,151,1,1,2,R,,3,,,,,,,
,,,,,,,,,,1,LT,2023-09-27_15h43.46.109,Motor_Task,2023.2.2,MacIntel,30.3030303,104.987,105.787,2,1,0.769,,15,2,152,2,1,3,M,,2,,,,,,,
,,,,,,,,,,1,LT,2023-09-27_15h43.46.109,Motor_Task,2023.2.2,MacIntel,30.3030303,105.787,106.22,3,1,0.417,,15,3,153,3,1,4,R,,3,,,,,,,
,,,,,,,,,,1,LT,2023-09-27_15h43.46.109,Motor_Task,2023.2.2,MacIntel,30.3030303,106.221,106.787,1,1,0.535,,15,4,154,4,1,5,I,,1,,,,,,,
,,,,,,,,,,1,LT,2023-09-27_15h43.46.109,Motor_Task,2023.2.2,MacIntel,30.3030303,106.787,107.32,1,1,0.504,,15,5,155,5,1,6,I,,1,,,,,,,
,,,,,,,,,,1,LT,2023-09-27_15h43.46.109,Motor_Task,2023.2.2,MacIntel,30.3030303,107.321,107.82,3,1,0.495,,15,6,156,6,1,7,R,,3,,,,,,,
,,,,,,,,,,1,LT,2023-09-27_15h43.46.109,Motor_Task,2023.2.2,MacIntel,30.3030303,107.821,108.32,2,1,0.487,,15,7,157,7,1,8,M,,2,,,,,,,
,,,,,,,,,,1,LT,2023-09-27_15h43.46.109,Motor_Task,2023.2.2,MacIntel,30.3030303,108.321,108.887,4,1,0.553,,15,8,158,8,1,9,L,,4,,,,,,,
,,,,,,,,,,1,LT,2023-09-27_15h43.46.109,Motor_Task,2023.2.2,MacIntel,30.3030303,108.887,109.354,1,1,0.451,,15,9,159,9,1,10,I,,1,,,,,,,
,,,,,,,,,,1,LT,2023-09-27_15h43.46.109,Motor_Task,2023.2.2,MacIntel,30.3030303,109.354,109.82,2,1,0.439,,16,0,160,0,1,1,M,,2,,,,,,,
,,,,,,,,,,1,LT,2023-09-27_15h43.46.109,Motor_Task,2023.2.2,MacIntel,30.3030303,109.821,110.287,3,1,0.444,,16,1,161,1,1,2,R,,3,,,,,,,
,,,,,,,,,,1,LT,2023-09-27_15h43.46.109,Motor_Task,2023.2.2,MacIntel,30.3030303,110.287,110.887,2,1,0.598,,16,2,162,2,1,3,M,,2,,,,,,,
,,,,,,,,,,1,LT,2023-09-27_15h43.46.109,Motor_Task,2023.2.2,MacIntel,30.3030303,110.887,111.32,3,1,0.421,,16,3,163,3,1,4,R,,3,,,,,,,
,,,,,,,,,,1,LT,2023-09-27_15h43.46.109,Motor_Task,2023.2.2,MacIntel,30.3030303,111.32,111.82,1,1,0.478,,16,4,164,4,1,5,I,,1,,,,,,,
,,,,,,,,,,1,LT,2023-09-27_15h43.46.109,Motor_Task,2023.2.2,MacIntel,30.3030303,111.821,112.387,1,1,0.549,,16,5,165,5,1,6,I,,1,,,,,,,
,,,,,,,,,,1,LT,2023-09-27_15h43.46.109,Motor_Task,2023.2.2,MacIntel,30.3030303,112.387,113.021,3,1,0.621,,16,6,166,6,1,7,R,,3,,,,,,,
,,,,,,,,,,1,LT,2023-09-27_15h43.46.109,Motor_Task,2023.2.2,MacIntel,30.3030303,113.021,113.454,2,1,0.418,,16,7,167,7,1,8,M,,2,,,,,,,
,,,,,,,,,,1,LT,2023-09-27_15h43.46.109,Motor_Task,2023.2.2,MacIntel,30.3030303,113.454,114.053,4,1,0.58,,16,8,168,8,1,9,L,,4,,,,,,,
,,,,,,,,,,1,LT,2023-09-27_15h43.46.109,Motor_Task,2023.2.2,MacIntel,30.3030303,114.054,114.654,1,1,0.578,,16,9,169,9,1,10,I,,1,,,,,,,
,,,,,,,,,,1,LT,2023-09-27_15h43.46.109,Motor_Task,2023.2.2,MacIntel,30.3030303,114.654,115.087,2,1,0.418,,17,0,170,0,1,1,M,,2,,,,,,,
,,,,,,,,,,1,LT,2023-09-27_15h43.46.109,Motor_Task,2023.2.2,MacIntel,30.3030303,115.087,115.52,3,1,0.427,,17,1,171,1,1,2,R,,3,,,,,,,
,,,,,,,,,,1,LT,2023-09-27_15h43.46.109,Motor_Task,2023.2.2,MacIntel,30.3030303,115.521,115.953,2,1,0.413,,17,2,172,2,1,3,M,,2,,,,,,,
,,,,,,,,,,1,LT,2023-09-27_15h43.46.109,Motor_Task,2023.2.2,MacIntel,30.3030303,115.953,116.454,3,1,0.492,,17,3,173,3,1,4,R,,3,,,,,,,
,,,,,,,,,,1,LT,2023-09-27_15h43.46.109,Motor_Task,2023.2.2,MacIntel,30.3030303,116.454,116.92,1,1,0.464,,17,4,174,4,1,5,I,,1,,,,,,,
,,,,,,,,,,1,LT,2023-09-27_15h43.46.109,Motor_Task,2023.2.2,MacIntel,30.3030303,116.921,117.587,1,1,0.664,,17,5,175,5,1,6,I,,1,,,,,,,
,,,,,,,,,,1,LT,2023-09-27_15h43.46.109,Motor_Task,2023.2.2,MacIntel,30.3030303,117.587,118.253,3,1,0.637,,17,6,176,6,1,7,R,,3,,,,,,,
,,,,,,,,,,1,LT,2023-09-27_15h43.46.109,Motor_Task,2023.2.2,MacIntel,30.3030303,118.254,118.72,2,1,0.447,,17,7,177,7,1,8,M,,2,,,,,,,
,,,,,,,,,,1,LT,2023-09-27_15h43.46.109,Motor_Task,2023.2.2,MacIntel,30.3030303,118.721,119.287,4,1,0.56,,17,8,178,8,1,9,L,,4,,,,,,,
,,,,,,,,,,1,LT,2023-09-27_15h43.46.109,Motor_Task,2023.2.2,MacIntel,30.3030303,119.287,119.787,1,1,0.469,,17,9,179,9,1,10,I,,1,,,,,,,
,,,,,,,,,,1,LT,2023-09-27_15h43.46.109,Motor_Task,2023.2.2,MacIntel,30.3030303,119.787,120.32,2,1,0.526,,18,0,180,0,1,1,M,,2,,,,,,,
,,,,,,,,,,1,LT,2023-09-27_15h43.46.109,Motor_Task,2023.2.2,MacIntel,30.3030303,120.321,120.787,3,1,0.449,,18,1,181,1,1,2,R,,3,,,,,,,
,,,,,,,,,,1,LT,2023-09-27_15h43.46.109,Motor_Task,2023.2.2,MacIntel,30.3030303,120.787,121.287,2,1,0.469,,18,2,182,2,1,3,M,,2,,,,,,,
,,,,,,,,,,1,LT,2023-09-27_15h43.46.109,Motor_Task,2023.2.2,MacIntel,30.3030303,121.287,121.72,3,1,0.426,,18,3,183,3,1,4,R,,3,,,,,,,
,,,,,,,,,,1,LT,2023-09-27_15h43.46.109,Motor_Task,2023.2.2,MacIntel,30.3030303,121.72,122.186,1,1,0.45,,18,4,184,4,1,5,I,,1,,,,,,,
,,,,,,,,,,1,LT,2023-09-27_15h43.46.109,Motor_Task,2023.2.2,MacIntel,30.3030303,122.186,122.72,1,1,0.53,,18,5,185,5,1,6,I,,1,,,,,,,
,,,,,,,,,,1,LT,2023-09-27_15h43.46.109,Motor_Task,2023.2.2,MacIntel,30.3030303,122.721,123.254,3,1,0.529,,18,6,186,6,1,7,R,,3,,,,,,,
,,,,,,,,,,1,LT,2023-09-27_15h43.46.109,Motor_Task,2023.2.2,MacIntel,30.3030303,123.254,123.687,2,1,0.402,,18,7,187,7,1,8,M,,2,,,,,,,
,,,,,,,,,,1,LT,2023-09-27_15h43.46.109,Motor_Task,2023.2.2,MacIntel,30.3030303,123.687,124.254,4,1,0.546,,18,8,188,8,1,9,L,,4,,,,,,,
,,,,,,,,,,1,LT,2023-09-27_15h43.46.109,Motor_Task,2023.2.2,MacIntel,30.3030303,124.254,124.72,1,1,0.44,,18,9,189,9,1,10,I,,1,,,,,,,
,,,,,,,,,,1,LT,2023-09-27_15h43.46.109,Motor_Task,2023.2.2,MacIntel,30.3030303,124.72,125.387,2,1,0.657,,19,0,190,0,1,1,M,,2,,,,,,,
,,,,,,,,,,1,LT,2023-09-27_15h43.46.109,Motor_Task,2023.2.2,MacIntel,30.3030303,125.387,125.754,3,1,0.358,,19,1,191,1,1,2,R,,3,,,,,,,
,,,,,,,,,,1,LT,2023-09-27_15h43.46.109,Motor_Task,2023.2.2,MacIntel,30.3030303,125.754,126.087,2,1,0.321,,19,2,192,2,1,3,M,,2,,,,,,,
,,,,,,,,,,1,LT,2023-09-27_15h43.46.109,Motor_Task,2023.2.2,MacIntel,30.3030303,126.087,126.454,3,1,0.361,,19,3,193,3,1,4,R,,3,,,,,,,
,,,,,,,,,,1,LT,2023-09-27_15h43.46.109,Motor_Task,2023.2.2,MacIntel,30.3030303,126.454,126.886,1,1,0.418,,19,4,194,4,1,5,I,,1,,,,,,,
,,,,,,,,,,1,LT,2023-09-27_15h43.46.109,Motor_Task,2023.2.2,MacIntel,30.3030303,126.886,127.254,1,1,0.349,,19,5,195,5,1,6,I,,1,,,,,,,
,,,,,,,,,,1,LT,2023-09-27_15h43.46.109,Motor_Task,2023.2.2,MacIntel,30.3030303,127.254,127.82,3,1,0.563,,19,6,196,6,1,7,R,,3,,,,,,,
,,,,,,,,,,1,LT,2023-09-27_15h43.46.109,Motor_Task,2023.2.2,MacIntel,30.3030303,127.82,128.287,2,1,0.436,,19,7,197,7,1,8,M,,2,,,,,,,
,,,,,,,,,,1,LT,2023-09-27_15h43.46.109,Motor_Task,2023.2.2,MacIntel,30.3030303,128.287,128.687,3,0,0.39,,19,8,198,8,1,9,L,,4,,,,,,,
,,,,,,,,,,1,LT,2023-09-27_15h43.46.109,Motor_Task,2023.2.2,MacIntel,30.3030303,128.687,129.354,1,1,0.643,,19,9,199,9,1,10,I,,1,,,,,,,
,,,,,,,,,,1,LT,2023-09-27_15h43.46.109,Motor_Task,2023.2.2,MacIntel,30.3030303,129.36,129.987,3,1,0.617,,,,,,,2,R,,3,0,0,0,1,1,,
,,,,,,,,,,1,LT,2023-09-27_15h43.46.109,Motor_Task,2023.2.2,MacIntel,30.3030303,129.988,130.62,1,1,0.611,,,,,,,10,I,,1,0,1,1,9,1,,
,,,,,,,,,,1,LT,2023-09-27_15h43.46.109,Motor_Task,2023.2.2,MacIntel,30.3030303,130.621,131.22,2,1,0.585,,,,,,,8,M,,2,0,2,2,7,1,,
,,,,,,,,,,1,LT,2023-09-27_15h43.46.109,Motor_Task,2023.2.2,MacIntel,30.3030303,131.221,131.654,3,1,0.409,,,,,,,7,R,,3,0,3,3,6,1,,
,,,,,,,,,,1,LT,2023-09-27_15h43.46.109,Motor_Task,2023.2.2,MacIntel,30.3030303,131.654,132.287,4,1,0.622,,,,,,,9,L,,4,0,4,4,8,1,,
,,,,,,,,,,1,LT,2023-09-27_15h43.46.109,Motor_Task,2023.2.2,MacIntel,30.3030303,132.287,132.987,2,1,0.686,,,,,,,3,M,,2,0,5,5,2,1,,
,,,,,,,,,,1,LT,2023-09-27_15h43.46.109,Motor_Task,2023.2.2,MacIntel,30.3030303,132.987,133.62,1,1,0.619,,,,,,,6,I,,1,0,6,6,5,1,,
,,,,,,,,,,1,LT,2023-09-27_15h43.46.109,Motor_Task,2023.2.2,MacIntel,30.3030303,133.621,134.254,1,1,0.626,,,,,,,5,I,,1,0,7,7,4,1,,
,,,,,,,,,,1,LT,2023-09-27_15h43.46.109,Motor_Task,2023.2.2,MacIntel,30.3030303,134.254,134.72,2,1,0.444,,,,,,,1,M,,2,0,8,8,0,1,,
,,,,,,,,,,1,LT,2023-09-27_15h43.46.109,Motor_Task,2023.2.2,MacIntel,30.3030303,134.721,135.52,3,1,0.769,,,,,,,4,R,,3,0,9,9,3,1,,
,,,,,,,,,,1,LT,2023-09-27_15h43.46.109,Motor_Task,2023.2.2,MacIntel,30.3030303,135.52,136.754,1,1,1.229,,,,,,,10,I,,1,1,0,10,9,1,,
,,,,,,,,,,1,LT,2023-09-27_15h43.46.109,Motor_Task,2023.2.2,MacIntel,30.3030303,136.754,137.72,2,1,0.937,,,,,,,1,M,,2,1,1,11,0,1,,
,,,,,,,,,,1,LT,2023-09-27_15h43.46.109,Motor_Task,2023.2.2,MacIntel,30.3030303,137.721,138.254,1,1,0.528,,,,,,,6,I,,1,1,2,12,5,1,,
,,,,,,,,,,1,LT,2023-09-27_15h43.46.109,Motor_Task,2023.2.2,MacIntel,30.3030303,138.254,138.82,1,1,0.558,,,,,,,5,I,,1,1,3,13,4,1,,
,,,,,,,,,,1,LT,2023-09-27_15h43.46.109,Motor_Task,2023.2.2,MacIntel,30.3030303,138.821,139.353,3,1,0.521,,,,,,,4,R,,3,1,4,14,3,1,,
,,,,,,,,,,1,LT,2023-09-27_15h43.46.109,Motor_Task,2023.2.2,MacIntel,30.3030303,139.353,139.787,2,1,0.428,,,,,,,3,M,,2,1,5,15,2,1,,
,,,,,,,,,,1,LT,2023-09-27_15h43.46.109,Motor_Task,2023.2.2,MacIntel,30.3030303,139.787,140.22,3,1,0.404,,,,,,,2,R,,3,1,6,16,1,1,,
,,,,,,,,,,1,LT,2023-09-27_15h43.46.109,Motor_Task,2023.2.2,MacIntel,30.3030303,140.221,140.821,4,1,0.568,,,,,,,9,L,,4,1,7,17,8,1,,
,,,,,,,,,,1,LT,2023-09-27_15h43.46.109,Motor_Task,2023.2.2,MacIntel,30.3030303,140.821,141.587,3,1,0.764,,,,,,,7,R,,3,1,8,18,6,1,,
,,,,,,,,,,1,LT,2023-09-27_15h43.46.109,Motor_Task,2023.2.2,MacIntel,30.3030303,141.587,142.486,1,0,0.895,,,,,,,8,M,,2,1,9,19,7,1,,
,,,,,,,,,,1,LT,2023-09-27_15h43.46.109,Motor_Task,2023.2.2,MacIntel,30.3030303,142.486,143.354,2,1,0.858,,,,,,,1,M,,2,2,0,20,0,1,,
,,,,,,,,,,1,LT,2023-09-27_15h43.46.109,Motor_Task,2023.2.2,MacIntel,30.3030303,143.354,143.954,2,1,0.593,,,,,,,8,M,,2,2,1,21,7,1,,
,,,,,,,,,,1,LT,2023-09-27_15h43.46.109,Motor_Task,2023.2.2,MacIntel,30.3030303,143.954,144.454,1,1,0.476,,,,,,,10,I,,1,2,2,22,9,1,,
,,,,,,,,,,1,LT,2023-09-27_15h43.46.109,Motor_Task,2023.2.2,MacIntel,30.3030303,144.454,145.187,2,1,0.727,,,,,,,3,M,,2,2,3,23,2,1,,
,,,,,,,,,,1,LT,2023-09-27_15h43.46.109,Motor_Task,2023.2.2,MacIntel,30.3030303,145.187,145.687,1,1,0.485,,,,,,,6,I,,1,2,4,24,5,1,,
,,,,,,,,,,1,LT,2023-09-27_15h43.46.109,Motor_Task,2023.2.2,MacIntel,30.3030303,145.687,146.254,3,1,0.539,,,,,,,4,R,,3,2,5,25,3,1,,
,,,,,,,,,,1,LT,2023-09-27_15h43.46.109,Motor_Task,2023.2.2,MacIntel,30.3030303,146.254,146.788,1,1,0.502,,,,,,,5,I,,1,2,6,26,4,1,,
,,,,,,,,,,1,LT,2023-09-27_15h43.46.109,Motor_Task,2023.2.2,MacIntel,30.3030303,146.788,147.22,3,1,0.418,,,,,,,2,R,,3,2,7,27,1,1,,
,,,,,,,,,,1,LT,2023-09-27_15h43.46.109,Motor_Task,2023.2.2,MacIntel,30.3030303,147.22,147.887,4,1,0.658,,,,,,,9,L,,4,2,8,28,8,1,,
,,,,,,,,,,1,LT,2023-09-27_15h43.46.109,Motor_Task,2023.2.2,MacIntel,30.3030303,147.887,148.52,3,1,0.629,,,,,,,7,R,,3,2,9,29,6,1,,
,,,,,,,,,,1,LT,2023-09-27_15h43.46.109,Motor_Task,2023.2.2,MacIntel,30.3030303,148.521,149.053,2,1,0.527,,,,,,,8,M,,2,3,0,30,7,1,,
,,,,,,,,,,1,LT,2023-09-27_15h43.46.109,Motor_Task,2023.2.2,MacIntel,30.3030303,149.054,149.587,2,1,0.516,,,,,,,1,M,,2,3,1,31,0,1,,
,,,,,,,,,,1,LT,2023-09-27_15h43.46.109,Motor_Task,2023.2.2,MacIntel,30.3030303,149.587,150.088,2,1,0.499,,,,,,,3,M,,2,3,2,32,2,1,,
,,,,,,,,,,1,LT,2023-09-27_15h43.46.109,Motor_Task,2023.2.2,MacIntel,30.3030303,150.088,150.687,3,1,0.596,,,,,,,7,R,,3,3,3,33,6,1,,
,,,,,,,,,,1,LT,2023-09-27_15h43.46.109,Motor_Task,2023.2.2,MacIntel,30.3030303,150.687,151.254,1,1,0.559,,,,,,,5,I,,1,3,4,34,4,1,,
,,,,,,,,,,1,LT,2023-09-27_15h43.46.109,Motor_Task,2023.2.2,MacIntel,30.3030303,151.254,151.754,1,1,0.469,,,,,,,6,I,,1,3,5,35,5,1,,
,,,,,,,,,,1,LT,2023-09-27_15h43.46.109,Motor_Task,2023.2.2,MacIntel,30.3030303,151.754,152.287,3,0,0.503,,,,,,,9,L,,4,3,6,36,8,1,,
,,,,,,,,,,1,LT,2023-09-27_15h43.46.109,Motor_Task,2023.2.2,MacIntel,30.3030303,152.287,153.053,3,1,0.763,,,,,,,4,R,,3,3,7,37,3,1,,
,,,,,,,,,,1,LT,2023-09-27_15h43.46.109,Motor_Task,2023.2.2,MacIntel,30.3030303,153.053,154.654,1,1,1.587,,,,,,,10,I,,1,3,8,38,9,1,,
,,,,,,,,,,1,LT,2023-09-27_15h43.46.109,Motor_Task,2023.2.2,MacIntel,30.3030303,154.654,156.687,3,1,2.026,,,,,,,2,R,,3,3,9,39,1,1,,
,,,,,,,,,,1,LT,2023-09-27_15h43.46.109,Motor_Task,2023.2.2,MacIntel,30.3030303,156.687,157.22,3,1,0.505,,,,,,,2,R,,3,4,0,40,1,1,,
,,,,,,,,,,1,LT,2023-09-27_15h43.46.109,Motor_Task,2023.2.2,MacIntel,30.3030303,157.221,157.82,2,1,0.571,,,,,,,8,M,,2,4,1,41,7,1,,
,,,,,,,,,,1,LT,2023-09-27_15h43.46.109,Motor_Task,2023.2.2,MacIntel,30.3030303,157.821,158.32,2,1,0.482,,,,,,,3,M,,2,4,2,42,2,1,,
,,,,,,,,,,1,LT,2023-09-27_15h43.46.109,Motor_Task,2023.2.2,MacIntel,30.3030303,158.321,158.886,1,1,0.553,,,,,,,5,I,,1,4,3,43,4,1,,
,,,,,,,,,,1,LT,2023-09-27_15h43.46.109,Motor_Task,2023.2.2,MacIntel,30.3030303,158.887,159.387,1,1,0.487,,,,,,,10,I,,1,4,4,44,9,1,,
,,,,,,,,,,1,LT,2023-09-27_15h43.46.109,Motor_Task,2023.2.2,MacIntel,30.3030303,159.387,160.02,3,1,0.61,,,,,,,4,R,,3,4,5,45,3,1,,
,,,,,,,,,,1,LT,2023-09-27_15h43.46.109,Motor_Task,2023.2.2,MacIntel,30.3030303,160.02,160.52,2,1,0.472,,,,,,,1,M,,2,4,6,46,0,1,,
,,,,,,,,,,1,LT,2023-09-27_15h43.46.109,Motor_Task,2023.2.2,MacIntel,30.3030303,160.521,161.187,4,1,0.65,,,,,,,9,L,,4,4,7,47,8,1,,
,,,,,,,,,,1,LT,2023-09-27_15h43.46.109,Motor_Task,2023.2.2,MacIntel,30.3030303,161.187,161.82,1,1,0.611,,,,,,,6,I,,1,4,8,48,5,1,,
,,,,,,,,,,1,LT,2023-09-27_15h43.46.109,Motor_Task,2023.2.2,MacIntel,30.3030303,161.821,162.353,3,1,0.529,,,,,,,7,R,,3,4,9,49,6,1,,
,,,,,,,,,,1,LT,2023-09-27_15h43.46.109,Motor_Task,2023.2.2,MacIntel,30.3030303,,,,,,,,,,,,,,,,,,,,,162.355,166.354