Trigger.started,Trigger.stopped,key_resp_4.keys,mouse.x,mouse.y,mouse.leftButton,mouse.midButton,mouse.rightButton,Session,Subject,date,expName,psychopyVersion,OS,frameRate,complex_block.started,complex_block.stopped,key_resp.keys,key_resp.corr,key_resp.rt,key_resp.duration,complex_block_loop.thisRepN,complex_block_loop.thisTrialN,complex_block_loop.thisN,complex_block_loop.thisIndex,complex_block_loop.ran,trial,finger,markerPos,correctResp,new_block_loop.thisRepN,new_block_loop.thisTrialN,new_block_loop.thisN,new_block_loop.thisIndex,new_block_loop.ran,endBuffer.started,endBuffer.stopped
0.0004,20.4057,,-0.129346653,-0.246642795,1,0,0,1,,2023-09-27_15h43.32.617,Motor_Task,2023.2.2,MacIntel,60.0024001,,,,,,,,,,,,,,,,,,,,,,
,,,,,,,,1,,2023-09-27_15h43.32.617,Motor_Task,2023.2.2,MacIntel,60.0024001,20.4317,21.4573,2,1,1.0166,,0,0,0,0,1,1,M,,2,,,,,,,
,,,,,,,,1,,2023-09-27_15h43.32.617,Motor_Task,2023.2.2,MacIntel,60.0024001,21.4581,22.0725,3,1,0.6052,,0,1,1,1,1,2,R,,3,,,,,,,
,,,,,,,,1,,2023-09-27_15h43.32.617,Motor_Task,2023.2.2,MacIntel,60.0024001,22.073,22.5735,2,1,0.4978,,0,2,2,2,1,3,M,,2,,,,,,,
,,,,,,,,1,,2023-09-27_15h43.32.617,Motor_Task,2023.2.2,MacIntel,60.0024001,22.574,23.0719,3,1,0.4885,,0,3,3,3,1,4,R,,3,,,,,,,
,,,,,,,,1,,2023-09-27_15h43.32.617,Motor_Task,2023.2.2,MacIntel,60.0024001,23.0737,23.6378,1,1,0.5586,,0,4,4,4,1,5,I,,1,,,,,,,
,,,,,,,,1,,2023-09-27_15h43.32.617,Motor_Task,2023.2.2,MacIntel,60.0024001,23.6381,24.1547,1,1,0.5095,,0,5,5,5,1,6,I,,1,,,,,,,
,,,,,,,,1,,2023-09-27_15h43.32.617,Motor_Task,2023.2.2,MacIntel,60.0024001,24.1551,24.7054,3,1,0.54,,0,6,6,6,1,7,R,,3,,,,,,,
,,,,,,,,1,,2023-09-27_15h43.32.617,Motor_Task,2023.2.2,MacIntel,60.0024001,24.7056,25.2571,2,1,0.5461,,0,7,7,7,1,8,M,,2,,,,,,,
,,,,,,,,1,,2023-09-27_15h43.32.617,Motor_Task,2023.2.2,MacIntel,60.0024001,25.2573,25.771,4,1,0.5111,,0,8,8,8,1,9,L,,4,,,,,,,
,,,,,,,,1,,2023-09-27_15h43.32.617,Motor_Task,2023.2.2,MacIntel,60.0024001,25.7713,26.3226,1,1,0.5391,,0,9,9,9,1,10,I,,1,,,,,,,
,,,,,,,,1,,2023-09-27_15h43.32.617,Motor_Task,2023.2.2,MacIntel,60.0024001,26.3232,26.872,2,1,0.5473,,1,0,10,0,1,1,M,,2,,,,,,,
,,,,,,,,1,,2023-09-27_15h43.32.617,Motor_Task,2023.2.2,MacIntel,60.0024001,26.8725,27.3384,3,1,0.4588,,1,1,11,1,1,2,R,,3,,,,,,,
,,,,,,,,1,,2023-09-27_15h43.32.617,Motor_Task,2023.2.2,MacIntel,60.0024001,27.3387,27.8049,2,1,0.4644,,1,2,12,2,1,3,M,,2,,,,,,,
,,,,,,,,1,,2023-09-27_15h43.32.617,Motor_Task,2023.2.2,MacIntel,60.0024001,27.8053,28.3726,3,1,0.5569,,1,3,13,3,1,4,R,,3,,,,,,,
,,,,,,,,1,,2023-09-27_15h43.32.617,Motor_Task,2023.2.2,MacIntel,60.0024001,28.373,28.9051,1,1,0.5253,,1,4,14,4,1,5,I,,1,,,,,,,
,,,,,,,,1,,2023-09-27_15h43.32.617,Motor_Task,2023.2.2,MacIntel,60.0024001,28.9055,29.4225,1,1,0.5079,,1,5,15,5,1,6,I,,1,,,,,,,
,,,,,,,,1,,2023-09-27_15h43.32.617,Motor_Task,2023.2.2,MacIntel,60.0024001,29.4228,29.9552,3,1,0.5293,,1,6,16,6,1,7,R,,3,,,,,,,
,,,,,,,,1,,2023-09-27_15h43.32.617,Motor_Task,2023.2.2,MacIntel,60.0024001,29.9555,30.4387,2,1,0.4737,,1,7,17,7,1,8,M,,2,,,,,,,
,,,,,,,,1,,2023-09-27_15h43.32.617,Motor_Task,2023.2.2,MacIntel,60.0024001,30.4391,30.9059,4,1,0.4618,,1,8,18,8,1,9,L,,4,,,,,,,
,,,,,,,,1,,2023-09-27_15h43.32.617,Motor_Task,2023.2.2,MacIntel,60.0024001,30.9062,31.4559,1,1,0.537,,1,9,19,9,1,10,I,,1,,,,,,,
,,,,,,,,1,,2023-09-27_15h43.32.617,Motor_Task,2023.2.2,MacIntel,60.0024001,31.4564,31.9895,3,0,0.5275,,2,0,20,0,1,1,M,,2,,,,,,,
,,,,,,,,1,,2023-09-27_15h43.32.617,Motor_Task,2023.2.2,MacIntel,60.0024001,31.9899,32.0878,2,0,0.0949,,2,1,21,1,1,2,R,,3,,,,,,,
,,,,,,,,1,,2023-09-27_15h43.32.617,Motor_Task,2023.2.2,MacIntel,60.0024001,32.088,32.6722,2,1,0.5753,,2,2,22,2,1,3,M,,2,,,,,,,
,,,,,,,,1,,2023-09-27_15h43.32.617,Motor_Task,2023.2.2,MacIntel,60.0024001,32.6726,33.2059,3,1,0.5242,,2,3,23,3,1,4,R,,3,,,,,,,
,,,,,,,,1,,2023-09-27_15h43.32.617,Motor_Task,2023.2.2,MacIntel,60.0024001,33.2063,33.7384,1,1,0.5305,,2,4,24,4,1,5,I,,1,,,,,,,
,,,,,,,,1,,2023-09-27_15h43.32.617,Motor_Task,2023.2.2,MacIntel,60.0024001,33.7388,34.3048,1,1,0.5534,,2,5,25,5,1,6,I,,1,,,,,,,
,,,,,,,,1,,2023-09-27_15h43.32.617,Motor_Task,2023.2.2,MacIntel,60.0024001,34.305,34.921,3,1,0.6147,,2,6,26,6,1,7,R,,3,,,,,,,
,,,,,,,,1,,2023-09-27_15h43.32.617,Motor_Task,2023.2.2,MacIntel,60.0024001,34.9213,35.4058,2,1,0.4758,,2,7,27,7,1,8,M,,2,,,,,,,
,,,,,,,,1,,2023-09-27_15h43.32.617,Motor_Task,2023.2.2,MacIntel,60.0024001,35.4062,36.0552,4,1,0.6483,,2,8,28,8,1,9,L,,4,,,,,,,
,,,,,,,,1,,2023-09-27_15h43.32.617,Motor_Task,2023.2.2,MacIntel,60.0024001,36.0556,36.572,1,1,0.5079,,2,9,29,9,1,10,I,,1,,,,,,,
,,,,,,,,1,,2023-09-27_15h43.32.617,Motor_Task,2023.2.2,MacIntel,60.0024001,36.5724,37.1392,2,1,0.565,,3,0,30,0,1,1,M,,2,,,,,,,
,,,,,,,,1,,2023-09-27_15h43.32.617,Motor_Task,2023.2.2,MacIntel,60.0024001,37.1396,37.6718,3,1,0.5195,,3,1,31,1,1,2,R,,3,,,,,,,
,,,,,,,,1,,2023-09-27_15h43.32.617,Motor_Task,2023.2.2,MacIntel,60.0024001,37.6723,38.1893,2,1,0.5054,,3,2,32,2,1,3,M,,2,,,,,,,
,,,,,,,,1,,2023-09-27_15h43.32.617,Motor_Task,2023.2.2,MacIntel,60.0024001,38.1898,38.6715,3,1,0.4737,,3,3,33,3,1,4,R,,3,,,,,,,
,,,,,,,,1,,2023-09-27_15h43.32.617,Motor_Task,2023.2.2,MacIntel,60.0024001,38.6719,39.188,1,1,0.5146,,3,4,34,4,1,5,I,,1,,,,,,,
,,,,,,,,1,,2023-09-27_15h43.32.617,Motor_Task,2023.2.2,MacIntel,60.0024001,39.1883,39.7093,1,1,0.5206,,3,5,35,5,1,6,I,,1,,,,,,,
,,,,,,,,1,,2023-09-27_15h43.32.617,Motor_Task,2023.2.2,MacIntel,60.0024001,39.7096,40.2729,1,0,0.5501,,3,6,36,6,1,7,R,,3,,,,,,,
,,,,,,,,1,,2023-09-27_15h43.32.617,Motor_Task,2023.2.2,MacIntel,60.0024001,40.2733,41.1205,2,1,0.8456,,3,7,37,7,1,8,M,,2,,,,,,,
,,,,,,,,1,,2023-09-27_15h43.32.617,Motor_Task,2023.2.2,MacIntel,60.0024001,41.1209,41.6877,4,1,0.5606,,3,8,38,8,1,9,L,,4,,,,,,,
,,,,,,,,1,,2023-09-27_15h43.32.617,Motor_Task,2023.2.2,MacIntel,60.0024001,41.688,42.321,1,1,0.6323,,3,9,39,9,1,10,I,,1,,,,,,,
,,,,,,,,1,,2023-09-27_15h43.32.617,Motor_Task,2023.2.2,MacIntel,60.0024001,42.3212,42.8557,2,1,0.5255,,4,0,40,0,1,1,M,,2,,,,,,,
,,,,,,,,1,,2023-09-27_15h43.32.617,Motor_Task,2023.2.2,MacIntel,60.0024001,42.8562,43.3887,3,1,0.5293,,4,1,41,1,1,2,R,,3,,,,,,,
,,,,,,,,1,,2023-09-27_15h43.32.617,Motor_Task,2023.2.2,MacIntel,60.0024001,43.3891,43.9066,2,1,0.5088,,4,2,42,2,1,3,M,,2,,,,,,,
,,,,,,,,1,,2023-09-27_15h43.32.617,Motor_Task,2023.2.2,MacIntel,60.0024001,43.9082,44.4209,3,1,0.5109,,4,3,43,3,1,4,R,,3,,,,,,,
,,,,,,,,1,,2023-09-27_15h43.32.617,Motor_Task,2023.2.2,MacIntel,60.0024001,44.4212,44.9888,1,1,0.5601,,4,4,44,4,1,5,I,,1,,,,,,,
,,,,,,,,1,,2023-09-27_15h43.32.617,Motor_Task,2023.2.2,MacIntel,60.0024001,44.9892,45.5222,1,1,0.5246,,4,5,45,5,1,6,I,,1,,,,,,,
,,,,,,,,1,,2023-09-27_15h43.32.617,Motor_Task,2023.2.2,MacIntel,60.0024001,45.5226,46.1056,3,1,0.5707,,4,6,46,6,1,7,R,,3,,,,,,,
,,,,,,,,1,,2023-09-27_15h43.32.617,Motor_Task,2023.2.2,MacIntel,60.0024001,46.106,46.6055,2,1,0.4949,,4,7,47,7,1,8,M,,2,,,,,,,
,,,,,,,,1,,2023-09-27_15h43.32.617,Motor_Task,2023.2.2,MacIntel,60.0024001,46.6058,47.1224,4,1,0.5089,,4,8,48,8,1,9,L,,4,,,,,,,
,,,,,,,,1,,2023-09-27_15h43.32.617,Motor_Task,2023.2.2,MacIntel,60.0024001,47.1229,47.6382,1,1,0.5121,,4,9,49,9,1,10,I,,1,,,,,,,
,,,,,,,,1,,2023-09-27_15h43.32.617,Motor_Task,2023.2.2,MacIntel,60.0024001,47.6386,48.1389,2,1,0.4929,,5,0,50,0,1,1,M,,2,,,,,,,
,,,,,,,,1,,2023-09-27_15h43.32.617,Motor_Task,2023.2.2,MacIntel,60.0024001,48.1394,48.638,3,1,0.4901,,5,1,51,1,1,2,R,,3,,,,,,,
,,,,,,,,1,,2023-09-27_15h43.32.617,Motor_Task,2023.2.2,MacIntel,60.0024001,48.6386,49.1206,2,1,0.4812,,5,2,52,2,1,3,M,,2,,,,,,,
,,,,,,,,1,,2023-09-27_15h43.32.617,Motor_Task,2023.2.2,MacIntel,60.0024001,49.1221,49.588,3,1,0.4535,,5,3,53,3,1,4,R,,3,,,,,,,
,,,,,,,,1,,2023-09-27_15h43.32.617,Motor_Task,2023.2.2,MacIntel,60.0024001,49.5885,50.1378,1,1,0.5466,,5,4,54,4,1,5,I,,1,,,,,,,
,,,,,,,,1,,2023-09-27_15h43.32.617,Motor_Task,2023.2.2,MacIntel,60.0024001,50.1381,50.6555,1,1,0.5072,,5,5,55,5,1,6,I,,1,,,,,,,
,,,,,,,,1,,2023-09-27_15h43.32.617,Motor_Task,2023.2.2,MacIntel,60.0024001,50.656,51.1878,3,1,0.5246,,5,6,56,6,1,7,R,,3,,,,,,,
,,,,,,,,1,,2023-09-27_15h43.32.617,Motor_Task,2023.2.2,MacIntel,60.0024001,51.1882,51.689,2,1,0.4906,,5,7,57,7,1,8,M,,2,,,,,,,
,,,,,,,,1,,2023-09-27_15h43.32.617,Motor_Task,2023.2.2,MacIntel,60.0024001,51.6894,52.2398,4,1,0.5469,,5,8,58,8,1,9,L,,4,,,,,,,
,,,,,,,,1,,2023-09-27_15h43.32.617,Motor_Task,2023.2.2,MacIntel,60.0024001,52.2401,52.8048,1,1,0.5552,,5,9,59,9,1,10,I,,1,,,,,,,
,,,,,,,,1,,2023-09-27_15h43.32.617,Motor_Task,2023.2.2,MacIntel,60.0024001,52.8053,53.3393,2,1,0.5248,,6,0,60,0,1,1,M,,2,,,,,,,
,,,,,,,,1,,2023-09-27_15h43.32.617,Motor_Task,2023.2.2,MacIntel,60.0024001,53.3397,53.8382,3,1,0.4887,,6,1,61,1,1,2,R,,3,,,,,,,
,,,,,,,,1,,2023-09-27_15h43.32.617,Motor_Task,2023.2.2,MacIntel,60.0024001,53.8386,54.3042,2,1,0.465,,6,2,62,2,1,3,M,,2,,,,,,,
,,,,,,,,1,,2023-09-27_15h43.32.617,Motor_Task,2023.2.2,MacIntel,60.0024001,54.3046,54.8061,3,1,0.4926,,6,3,63,3,1,4,R,,3,,,,,,,
,,,,,,,,1,,2023-09-27_15h43.32.617,Motor_Task,2023.2.2,MacIntel,60.0024001,54.8065,55.3051,2,0,0.4855,,6,4,64,4,1,5,I,,1,,,,,,,
,,,,,,,,1,,2023-09-27_15h43.32.617,Motor_Task,2023.2.2,MacIntel,60.0024001,55.3055,55.5222,1,1,0.2079,,6,5,65,5,1,6,I,,1,,,,,,,
,,,,,,,,1,,2023-09-27_15h43.32.617,Motor_Task,2023.2.2,MacIntel,60.0024001,55.5227,56.3706,3,1,0.8468,,6,6,66,6,1,7,R,,3,,,,,,,
,,,,,,,,1,,2023-09-27_15h43.32.617,Motor_Task,2023.2.2,MacIntel,60.0024001,56.371,56.9715,2,1,0.5992,,6,7,67,7,1,8,M,,2,,,,,,,
,,,,,,,,1,,2023-09-27_15h43.32.617,Motor_Task,2023.2.2,MacIntel,60.0024001,56.9719,57.7206,4,1,0.7479,,6,8,68,8,1,9,L,,4,,,,,,,
,,,,,,,,1,,2023-09-27_15h43.32.617,Motor_Task,2023.2.2,MacIntel,60.0024001,57.7209,58.2545,1,1,0.5267,,6,9,69,9,1,10,I,,1,,,,,,,
,,,,,,,,1,,2023-09-27_15h43.32.617,Motor_Task,2023.2.2,MacIntel,60.0024001,58.2548,58.7558,2,1,0.4923,,7,0,70,0,1,1,M,,2,,,,,,,
,,,,,,,,1,,2023-09-27_15h43.32.617,Motor_Task,2023.2.2,MacIntel,60.0024001,58.7562,59.4042,3,1,0.645,,7,1,71,1,1,2,R,,3,,,,,,,
,,,,,,,,1,,2023-09-27_15h43.32.617,Motor_Task,2023.2.2,MacIntel,60.0024001,59.4045,60.1718,2,1,0.7597,,7,2,72,2,1,3,M,,2,,,,,,,
,,,,,,,,1,,2023-09-27_15h43.32.617,Motor_Task,2023.2.2,MacIntel,60.0024001,60.1722,60.6993,3,1,0.5073,,7,3,73,3,1,4,R,,3,,,,,,,
,,,,,,,,1,,2023-09-27_15h43.32.617,Motor_Task,2023.2.2,MacIntel,60.0024001,60.6996,61.3038,1,1,0.598,,7,4,74,4,1,5,I,,1,,,,,,,
,,,,,,,,1,,2023-09-27_15h43.32.617,Motor_Task,2023.2.2,MacIntel,60.0024001,61.3041,61.8385,1,1,0.5309,,7,5,75,5,1,6,I,,1,,,,,,,
,,,,,,,,1,,2023-09-27_15h43.32.617,Motor_Task,2023.2.2,MacIntel,60.0024001,61.8389,62.4216,3,1,0.5742,,7,6,76,6,1,7,R,,3,,,,,,,
,,,,,,,,1,,2023-09-27_15h43.32.617,Motor_Task,2023.2.2,MacIntel,60.0024001,62.4221,62.9399,2,1,0.511,,7,7,77,7,1,8,M,,2,,,,,,,
,,,,,,,,1,,2023-09-27_15h43.32.617,Motor_Task,2023.2.2,MacIntel,60.0024001,62.9403,63.5378,4,1,0.5948,,7,8,78,8,1,9,L,,4,,,,,,,
,,,,,,,,1,,2023-09-27_15h43.32.617,Motor_Task,2023.2.2,MacIntel,60.0024001,63.5381,64.1376,1,1,0.5964,,7,9,79,9,1,10,I,,1,,,,,,,
,,,,,,,,1,,2023-09-27_15h43.32.617,Motor_Task,2023.2.2,MacIntel,60.0024001,64.1377,64.6221,2,1,0.4834,,8,0,80,0,1,1,M,,2,,,,,,,
,,,,,,,,1,,2023-09-27_15h43.32.617,Motor_Task,2023.2.2,MacIntel,60.0024001,64.6227,65.2702,3,1,0.6465,,8,1,81,1,1,2,R,,3,,,,,,,
,,,,,,,,1,,2023-09-27_15h43.32.617,Motor_Task,2023.2.2,MacIntel,60.0024001,65.2706,65.7715,2,1,0.4962,,8,2,82,2,1,3,M,,2,,,,,,,
,,,,,,,,1,,2023-09-27_15h43.32.617,Motor_Task,2023.2.2,MacIntel,60.0024001,65.7719,66.2555,3,1,0.4753,,8,3,83,3,1,4,R,,3,,,,,,,
,,,,,,,,1,,2023-09-27_15h43.32.617,Motor_Task,2023.2.2,MacIntel,60.0024001,66.2561,66.7547,1,1,0.4931,,8,4,84,4,1,5,I,,1,,,,,,,
,,,,,,,,1,,2023-09-27_15h43.32.617,Motor_Task,2023.2.2,MacIntel,60.0024001,66.7551,67.273,1,1,0.5094,,8,5,85,5,1,6,I,,1,,,,,,,
,,,,,,,,1,,2023-09-27_15h43.32.617,Motor_Task,2023.2.2,MacIntel,60.0024001,67.2734,67.8053,3,1,0.5237,,8,6,86,6,1,7,R,,3,,,,,,,
,,,,,,,,1,,2023-09-27_15h43.32.617,Motor_Task,2023.2.2,MacIntel,60.0024001,67.8057,68.2885,2,1,0.4699,,8,7,87,7,1,8,M,,2,,,,,,,
,,,,,,,,1,,2023-09-27_15h43.32.617,Motor_Task,2023.2.2,MacIntel,60.0024001,68.2889,68.8038,4,1,0.5068,,8,8,88,8,1,9,L,,4,,,,,,,
,,,,,,,,1,,2023-09-27_15h43.32.617,Motor_Task,2023.2.2,MacIntel,60.0024001,68.8041,69.3209,1,1,0.5089,,8,9,89,9,1,10,I,,1,,,,,,,
,,,,,,,,1,,2023-09-27_15h43.32.617,Motor_Task,2023.2.2,MacIntel,60.0024001,69.3213,69.8544,2,1,0.5257,,9,0,90,0,1,1,M,,2,,,,,,,
,,,,,,,,1,,2023-09-27_15h43.32.617,Motor_Task,2023.2.2,MacIntel,60.0024001,69.8547,70.3545,3,1,0.4991,,9,1,91,1,1,2,R,,3,,,,,,,
,,,,,,,,1,,2023-09-27_15h43.32.617,Motor_Task,2023.2.2,MacIntel,60.0024001,70.3549,70.9384,2,1,0.5715,,9,2,92,2,1,3,M,,2,,,,,,,
,,,,,,,,1,,2023-09-27_15h43.32.617,Motor_Task,2023.2.2,MacIntel,60.0024001,70.9389,71.4226,3,1,0.4752,,9,3,93,3,1,4,R,,3,,,,,,,
,,,,,,,,1,,2023-09-27_15h43.32.617,Motor_Task,2023.2.2,MacIntel,60.0024001,71.423,71.9378,1,1,0.5088,,9,4,94,4,1,5,I,,1,,,,,,,
,,,,,,,,1,,2023-09-27_15h43.32.617,Motor_Task,2023.2.2,MacIntel,60.0024001,71.9384,72.4551,1,1,0.5163,,9,5,95,5,1,6,I,,1,,,,,,,
,,,,,,,,1,,2023-09-27_15h43.32.617,Motor_Task,2023.2.2,MacIntel,60.0024001,72.4556,73.005,3,1,0.5404,,9,6,96,6,1,7,R,,3,,,,,,,
,,,,,,,,1,,2023-09-27_15h43.32.617,Motor_Task,2023.2.2,MacIntel,60.0024001,73.0053,73.4882,2,1,0.4746,,9,7,97,7,1,8,M,,2,,,,,,,
,,,,,,,,1,,2023-09-27_15h43.32.617,Motor_Task,2023.2.2,MacIntel,60.0024001,73.4884,74.0056,4,1,0.5082,,9,8,98,8,1,9,L,,4,,,,,,,
,,,,,,,,1,,2023-09-27_15h43.32.617,Motor_Task,2023.2.2,MacIntel,60.0024001,74.006,74.455,1,1,0.4481,,9,9,99,9,1,10,I,,1,,,,,,,
,,,,,,,,1,,2023-09-27_15h43.32.617,Motor_Task,2023.2.2,MacIntel,60.0024001,74.4557,74.9701,2,1,0.5089,,10,0,100,0,1,1,M,,2,,,,,,,
,,,,,,,,1,,2023-09-27_15h43.32.617,Motor_Task,2023.2.2,MacIntel,60.0024001,74.9703,75.5058,3,1,0.5266,,10,1,101,1,1,2,R,,3,,,,,,,
,,,,,,,,1,,2023-09-27_15h43.32.617,Motor_Task,2023.2.2,MacIntel,60.0024001,75.5062,75.9888,2,1,0.4709,,10,2,102,2,1,3,M,,2,,,,,,,
,,,,,,,,1,,2023-09-27_15h43.32.617,Motor_Task,2023.2.2,MacIntel,60.0024001,75.9892,76.4384,3,1,0.4443,,10,3,103,3,1,4,R,,3,,,,,,,
,,,,,,,,1,,2023-09-27_15h43.32.617,Motor_Task,2023.2.2,MacIntel,60.0024001,76.439,76.9542,1,1,0.5036,,10,4,104,4,1,5,I,,1,,,,,,,
,,,,,,,,1,,2023-09-27_15h43.32.617,Motor_Task,2023.2.2,MacIntel,60.0024001,76.9546,77.4211,1,1,0.4618,,10,5,105,5,1,6,I,,1,,,,,,,
,,,,,,,,1,,2023-09-27_15h43.32.617,Motor_Task,2023.2.2,MacIntel,60.0024001,77.4214,77.8874,2,0,0.4632,,10,6,106,6,1,7,R,,3,,,,,,,
,,,,,,,,1,,2023-09-27_15h43.32.617,Motor_Task,2023.2.2,MacIntel,60.0024001,77.8876,78.4385,2,1,0.5419,,10,7,107,7,1,8,M,,2,,,,,,,
,,,,,,,,1,,2023-09-27_15h43.32.617,Motor_Task,2023.2.2,MacIntel,60.0024001,78.439,78.9209,3,0,0.4738,,10,8,108,8,1,9,L,,4,,,,,,,
,,,,,,,,1,,2023-09-27_15h43.32.617,Motor_Task,2023.2.2,MacIntel,60.0024001,78.9213,79.6208,1,1,0.6932,,10,9,109,9,1,10,I,,1,,,,,,,
,,,,,,,,1,,2023-09-27_15h43.32.617,Motor_Task,2023.2.2,MacIntel,60.0024001,79.6211,80.1388,2,1,0.5046,,11,0,110,0,1,1,M,,2,,,,,,,
,,,,,,,,1,,2023-09-27_15h43.32.617,Motor_Task,2023.2.2,MacIntel,60.0024001,80.1393,80.6885,3,1,0.548,,11,1,111,1,1,2,R,,3,,,,,,,
,,,,,,,,1,,2023-09-27_15h43.32.617,Motor_Task,2023.2.2,MacIntel,60.0024001,80.689,81.2208,1,0,0.5237,,11,2,112,2,1,3,M,,2,,,,,,,
,,,,,,,,1,,2023-09-27_15h43.32.617,Motor_Task,2023.2.2,MacIntel,60.0024001,81.2212,81.3038,2,0,0.077,,11,3,113,3,1,4,R,,3,,,,,,,
,,,,,,,,1,,2023-09-27_15h43.32.617,Motor_Task,2023.2.2,MacIntel,60.0024001,81.3042,81.8218,1,1,0.5105,,11,4,114,4,1,5,I,,1,,,,,,,
,,,,,,,,1,,2023-09-27_15h43.32.617,Motor_Task,2023.2.2,MacIntel,60.0024001,81.8222,82.354,1,1,0.5242,,11,5,115,5,1,6,I,,1,,,,,,,
,,,,,,,,1,,2023-09-27_15h43.32.617,Motor_Task,2023.2.2,MacIntel,60.0024001,82.3543,82.9369,3,1,0.5818,,11,6,116,6,1,7,R,,3,,,,,,,
,,,,,,,,1,,2023-09-27_15h43.32.617,Motor_Task,2023.2.2,MacIntel,60.0024001,82.9373,83.4373,2,1,0.491,,11,7,117,7,1,8,M,,2,,,,,,,
,,,,,,,,1,,2023-09-27_15h43.32.617,Motor_Task,2023.2.2,MacIntel,60.0024001,83.4376,83.9876,4,1,0.54,,11,8,118,8,1,9,L,,4,,,,,,,
,,,,,,,,1,,2023-09-27_15h43.32.617,Motor_Task,2023.2.2,MacIntel,60.0024001,83.9879,84.5545,1,1,0.565,,11,9,119,9,1,10,I,,1,,,,,,,
,,,,,,,,1,,2023-09-27_15h43.32.617,Motor_Task,2023.2.2,MacIntel,60.0024001,84.5549,85.0723,2,1,0.5083,,12,0,120,0,1,1,M,,2,,,,,,,
,,,,,,,,1,,2023-09-27_15h43.32.617,Motor_Task,2023.2.2,MacIntel,60.0024001,85.0726,85.6883,3,1,0.6055,,12,1,121,1,1,2,R,,3,,,,,,,
,,,,,,,,1,,2023-09-27_15h43.32.617,Motor_Task,2023.2.2,MacIntel,60.0024001,85.6887,86.4703,2,1,0.7792,,12,2,122,2,1,3,M,,2,,,,,,,
,,,,,,,,1,,2023-09-27_15h43.32.617,Motor_Task,2023.2.2,MacIntel,60.0024001,86.4707,87.0204,3,1,0.5464,,12,3,123,3,1,4,R,,3,,,,,,,
,,,,,,,,1,,2023-09-27_15h43.32.617,Motor_Task,2023.2.2,MacIntel,60.0024001,87.0207,87.622,1,1,0.5941,,12,4,124,4,1,5,I,,1,,,,,,,
,,,,,,,,1,,2023-09-27_15h43.32.617,Motor_Task,2023.2.2,MacIntel,60.0024001,87.6224,88.105,1,1,0.4761,,12,5,125,5,1,6,I,,1,,,,,,,
,,,,,,,,1,,2023-09-27_15h43.32.617,Motor_Task,2023.2.2,MacIntel,60.0024001,88.1054,88.7051,3,1,0.5924,,12,6,126,6,1,7,R,,3,,,,,,,
,,,,,,,,1,,2023-09-27_15h43.32.617,Motor_Task,2023.2.2,MacIntel,60.0024001,88.7055,89.2038,2,1,0.4933,,12,7,127,7,1,8,M,,2,,,,,,,
,,,,,,,,1,,2023-09-27_15h43.32.617,Motor_Task,2023.2.2,MacIntel,60.0024001,89.2041,89.7717,4,1,0.555,,12,8,128,8,1,9,L,,4,,,,,,,
,,,,,,,,1,,2023-09-27_15h43.32.617,Motor_Task,2023.2.2,MacIntel,60.0024001,89.7721,90.3053,1,1,0.5229,,12,9,129,9,1,10,I,,1,,,,,,,
,,,,,,,,1,,2023-09-27_15h43.32.617,Motor_Task,2023.2.2,MacIntel,60.0024001,90.3057,90.8037,2,1,0.4882,,13,0,130,0,1,1,M,,2,,,,,,,
,,,,,,,,1,,2023-09-27_15h43.32.617,Motor_Task,2023.2.2,MacIntel,60.0024001,90.8042,91.2726,3,1,0.4554,,13,1,131,1,1,2,R,,3,,,,,,,
,,,,,,,,1,,2023-09-27_15h43.32.617,Motor_Task,2023.2.2,MacIntel,60.0024001,91.2731,91.7531,2,1,0.4737,,13,2,132,2,1,3,M,,2,,,,,,,
,,,,,,,,1,,2023-09-27_15h43.32.617,Motor_Task,2023.2.2,MacIntel,60.0024001,91.7534,92.2542,3,1,0.4954,,13,3,133,3,1,4,R,,3,,,,,,,
,,,,,,,,1,,2023-09-27_15h43.32.617,Motor_Task,2023.2.2,MacIntel,60.0024001,92.2548,92.7893,1,1,0.5265,,13,4,134,4,1,5,I,,1,,,,,,,
,,,,,,,,1,,2023-09-27_15h43.32.617,Motor_Task,2023.2.2,MacIntel,60.0024001,92.7898,93.3051,1,1,0.5063,,13,5,135,5,1,6,I,,1,,,,,,,
,,,,,,,,1,,2023-09-27_15h43.32.617,Motor_Task,2023.2.2,MacIntel,60.0024001,93.3055,93.822,3,1,0.508,,13,6,136,6,1,7,R,,3,,,,,,,
,,,,,,,,1,,2023-09-27_15h43.32.617,Motor_Task,2023.2.2,MacIntel,60.0024001,93.8224,94.3042,2,1,0.4727,,13,7,137,7,1,8,M,,2,,,,,,,
,,,,,,,,1,,2023-09-27_15h43.32.617,Motor_Task,2023.2.2,MacIntel,60.0024001,94.3044,94.7875,4,1,0.4727,,13,8,138,8,1,9,L,,4,,,,,,,
,,,,,,,,1,,2023-09-27_15h43.32.617,Motor_Task,2023.2.2,MacIntel,60.0024001,94.7879,95.3881,1,1,0.5913,,13,9,139,9,1,10,I,,1,,,,,,,
,,,,,,,,1,,2023-09-27_15h43.32.617,Motor_Task,2023.2.2,MacIntel,60.0024001,95.3886,95.889,2,1,0.4873,,14,0,140,0,1,1,M,,2,,,,,,,
,,,,,,,,1,,2023-09-27_15h43.32.617,Motor_Task,2023.2.2,MacIntel,60.0024001,95.8894,96.3369,3,1,0.4459,,14,1,141,1,1,2,R,,3,,,,,,,
,,,,,,,,1,,2023-09-27_15h43.32.617,Motor_Task,2023.2.2,MacIntel,60.0024001,96.3373,96.8196,2,1,0.4715,,14,2,142,2,1,3,M,,2,,,,,,,
,,,,,,,,1,,2023-09-27_15h43.32.617,Motor_Task,2023.2.2,MacIntel,60.0024001,96.8199,97.3043,3,1,0.474,,14,3,143,3,1,4,R,,3,,,,,,,
,,,,,,,,1,,2023-09-27_15h43.32.617,Motor_Task,2023.2.2,MacIntel,60.0024001,97.3047,97.8371,1,1,0.5283,,14,4,144,4,1,5,I,,1,,,,,,,
,,,,,,,,1,,2023-09-27_15h43.32.617,Motor_Task,2023.2.2,MacIntel,60.0024001,97.8373,98.3221,1,1,0.4777,,14,5,145,5,1,6,I,,1,,,,,,,
,,,,,,,,1,,2023-09-27_15h43.32.617,Motor_Task,2023.2.2,MacIntel,60.0024001,98.3225,98.8041,3,1,0.4786,,14,6,146,6,1,7,R,,3,,,,,,,
,,,,,,,,1,,2023-09-27_15h43.32.617,Motor_Task,2023.2.2,MacIntel,60.0024001,98.8044,99.2888,2,1,0.4712,,14,7,147,7,1,8,M,,2,,,,,,,
,,,,,,,,1,,2023-09-27_15h43.32.617,Motor_Task,2023.2.2,MacIntel,60.0024001,99.2893,99.7868,4,1,0.4904,,14,8,148,8,1,9,L,,4,,,,,,,
,,,,,,,,1,,2023-09-27_15h43.32.617,Motor_Task,2023.2.2,MacIntel,60.0024001,99.7874,100.2861,1,1,0.4921,,14,9,149,9,1,10,I,,1,,,,,,,
,,,,,,,,1,,2023-09-27_15h43.32.617,Motor_Task,2023.2.2,MacIntel,60.0024001,100.2865,100.7383,2,1,0.444,,15,0,150,0,1,1,M,,2,,,,,,,
,,,,,,,,1,,2023-09-27_15h43.32.617,Motor_Task,2023.2.2,MacIntel,60.0024001,100.7387,101.3208,3,1,0.5742,,15,1,151,1,1,2,R,,3,,,,,,,
,,,,,,,,1,,2023-09-27_15h43.32.617,Motor_Task,2023.2.2,MacIntel,60.0024001,101.3213,101.7711,2,1,0.4413,,15,2,152,2,1,3,M,,2,,,,,,,
,,,,,,,,1,,2023-09-27_15h43.32.617,Motor_Task,2023.2.2,MacIntel,60.0024001,101.7716,102.221,3,1,0.4372,,15,3,153,3,1,4,R,,3,,,,,,,
,,,,,,,,1,,2023-09-27_15h43.32.617,Motor_Task,2023.2.2,MacIntel,60.0024001,102.2214,102.7369,1,1,0.513,,15,4,154,4,1,5,I,,1,,,,,,,
,,,,,,,,1,,2023-09-27_15h43.32.617,Motor_Task,2023.2.2,MacIntel,60.0024001,102.7373,103.2054,1,1,0.4559,,15,5,155,5,1,6,I,,1,,,,,,,
,,,,,,,,1,,2023-09-27_15h43.32.617,Motor_Task,2023.2.2,MacIntel,60.0024001,103.2059,103.7881,3,1,0.5753,,15,6,156,6,1,7,R,,3,,,,,,,
,,,,,,,,1,,2023-09-27_15h43.32.617,Motor_Task,2023.2.2,MacIntel,60.0024001,103.7887,104.2374,2,1,0.4387,,15,7,157,7,1,8,M,,2,,,,,,,
,,,,,,,,1,,2023-09-27_15h43.32.617,Motor_Task,2023.2.2,MacIntel,60.0024001,104.2378,104.7038,4,1,0.4578,,15,8,158,8,1,9,L,,4,,,,,,,
,,,,,,,,1,,2023-09-27_15h43.32.617,Motor_Task,2023.2.2,MacIntel,60.0024001,104.7041,105.1551,1,1,0.4415,,15,9,159,9,1,10,I,,1,,,,,,,
,,,,,,,,1,,2023-09-27_15h43.32.617,Motor_Task,2023.2.2,MacIntel,60.0024001,105.1555,105.606,2,1,0.4414,,16,0,160,0,1,1,M,,2,,,,,,,
,,,,,,,,1,,2023-09-27_15h43.32.617,Motor_Task,2023.2.2,MacIntel,60.0024001,105.6063,106.0534,3,1,0.4388,,16,1,161,1,1,2,R,,3,,,,,,,
,,,,,,,,1,,2023-09-27_15h43.32.617,Motor_Task,2023.2.2,MacIntel,60.0024001,106.0536,106.4874,2,1,0.4256,,16,2,162,2,1,3,M,,2,,,,,,,
,,,,,,,,1,,2023-09-27_15h43.32.617,Motor_Task,2023.2.2,MacIntel,60.0024001,106.4878,106.9199,3,1,0.4299,,16,3,163,3,1,4,R,,3,,,,,,,
,,,,,,,,1,,2023-09-27_15h43.32.617,Motor_Task,2023.2.2,MacIntel,60.0024001,106.9203,107.3723,1,1,0.4512,,16,4,164,4,1,5,I,,1,,,,,,,
,,,,,,,,1,,2023-09-27_15h43.32.617,Motor_Task,2023.2.2,MacIntel,60.0024001,107.3727,107.8701,1,1,0.4867,,16,5,165,5,1,6,I,,1,,,,,,,
,,,,,,,,1,,2023-09-27_15h43.32.617,Motor_Task,2023.2.2,MacIntel,60.0024001,107.8706,108.355,3,1,0.4712,,16,6,166,6,1,7,R,,3,,,,,,,
,,,,,,,,1,,2023-09-27_15h43.32.617,Motor_Task,2023.2.2,MacIntel,60.0024001,108.3554,108.8209,2,1,0.4535,,16,7,167,7,1,8,M,,2,,,,,,,
,,,,,,,,1,,2023-09-27_15h43.32.617,Motor_Task,2023.2.2,MacIntel,60.0024001,108.8213,109.304,4,1,0.4802,,16,8,168,8,1,9,L,,4,,,,,,,
,,,,,,,,1,,2023-09-27_15h43.32.617,Motor_Task,2023.2.2,MacIntel,60.0024001,109.3046,109.7722,1,1,0.4587,,16,9,169,9,1,10,I,,1,,,,,,,
,,,,,,,,1,,2023-09-27_15h43.32.617,Motor_Task,2023.2.2,MacIntel,60.0024001,109.7726,110.2865,2,1,0.5089,,17,0,170,0,1,1,M,,2,,,,,,,
,,,,,,,,1,,2023-09-27_15h43.32.617,Motor_Task,2023.2.2,MacIntel,60.0024001,110.2869,110.6702,3,1,0.3817,,17,1,171,1,1,2,R,,3,,,,,,,
,,,,,,,,1,,2023-09-27_15h43.32.617,Motor_Task,2023.2.2,MacIntel,60.0024001,110.6705,111.0884,2,1,0.4117,,17,2,172,2,1,3,M,,2,,,,,,,
,,,,,,,,1,,2023-09-27_15h43.32.617,Motor_Task,2023.2.2,MacIntel,60.0024001,111.0889,111.5701,3,1,0.4741,,17,3,173,3,1,4,R,,3,,,,,,,
,,,,,,,,1,,2023-09-27_15h43.32.617,Motor_Task,2023.2.2,MacIntel,60.0024001,111.5705,112.0032,1,1,0.4319,,17,4,174,4,1,5,I,,1,,,,,,,
,,,,,,,,1,,2023-09-27_15h43.32.617,Motor_Task,2023.2.2,MacIntel,60.0024001,112.0035,112.4878,1,1,0.474,,17,5,175,5,1,6,I,,1,,,,,,,
,,,,,,,,1,,2023-09-27_15h43.32.617,Motor_Task,2023.2.2,MacIntel,60.0024001,112.4882,112.9367,2,0,0.4448,,17,6,176,6,1,7,R,,3,,,,,,,
,,,,,,,,1,,2023-09-27_15h43.32.617,Motor_Task,2023.2.2,MacIntel,60.0024001,112.9371,113.3874,2,1,0.4432,,17,7,177,7,1,8,M,,2,,,,,,,
,,,,,,,,1,,2023-09-27_15h43.32.617,Motor_Task,2023.2.2,MacIntel,60.0024001,113.3876,113.9543,4,1,0.5577,,17,8,178,8,1,9,L,,4,,,,,,,
,,,,,,,,1,,2023-09-27_15h43.32.617,Motor_Task,2023.2.2,MacIntel,60.0024001,113.9547,114.4226,1,1,0.454,,17,9,179,9,1,10,I,,1,,,,,,,
,,,,,,,,1,,2023-09-27_15h43.32.617,Motor_Task,2023.2.2,MacIntel,60.0024001,114.4231,114.9364,2,1,0.5049,,18,0,180,0,1,1,M,,2,,,,,,,
,,,,,,,,1,,2023-09-27_15h43.32.617,Motor_Task,2023.2.2,MacIntel,60.0024001,114.9368,115.4221,3,1,0.4722,,18,1,181,1,1,2,R,,3,,,,,,,
,,,,,,,,1,,2023-09-27_15h43.32.617,Motor_Task,2023.2.2,MacIntel,60.0024001,115.4226,115.8528,2,1,0.4247,,18,2,182,2,1,3,M,,2,,,,,,,
,,,,,,,,1,,2023-09-27_15h43.32.617,Motor_Task,2023.2.2,MacIntel,60.0024001,115.853,116.3045,3,1,0.443,,18,3,183,3,1,4,R,,3,,,,,,,
,,,,,,,,1,,2023-09-27_15h43.32.617,Motor_Task,2023.2.2,MacIntel,60.0024001,116.3048,116.7717,1,1,0.4569,,18,4,184,4,1,5,I,,1,,,,,,,
,,,,,,,,1,,2023-09-27_15h43.32.617,Motor_Task,2023.2.2,MacIntel,60.0024001,116.7721,117.3043,1,1,0.5204,,18,5,185,5,1,6,I,,1,,,,,,,
,,,,,,,,1,,2023-09-27_15h43.32.617,Motor_Task,2023.2.2,MacIntel,60.0024001,117.3047,117.8198,3,1,0.5145,,18,6,186,6,1,7,R,,3,,,,,,,
,,,,,,,,1,,2023-09-27_15h43.32.617,Motor_Task,2023.2.2,MacIntel,60.0024001,117.8202,118.2716,2,1,0.4399,,18,7,187,7,1,8,M,,2,,,,,,,
,,,,,,,,1,,2023-09-27_15h43.32.617,Motor_Task,2023.2.2,MacIntel,60.0024001,118.272,118.7552,4,1,0.4763,,18,8,188,8,1,9,L,,4,,,,,,,
,,,,,,,,1,,2023-09-27_15h43.32.617,Motor_Task,2023.2.2,MacIntel,60.0024001,118.7557,119.2548,1,1,0.4916,,18,9,189,9,1,10,I,,1,,,,,,,
,,,,,,,,1,,2023-09-27_15h43.32.617,Motor_Task,2023.2.2,MacIntel,60.0024001,119.2552,119.7717,2,1,0.5069,,19,0,190,0,1,1,M,,2,,,,,,,
,,,,,,,,1,,2023-09-27_15h43.32.617,Motor_Task,2023.2.2,MacIntel,60.0024001,119.7721,120.1714,3,1,0.3864,,19,1,191,1,1,2,R,,3,,,,,,,
,,,,,,,,1,,2023-09-27_15h43.32.617,Motor_Task,2023.2.2,MacIntel,60.0024001,120.1719,120.6217,2,1,0.4408,,19,2,192,2,1,3,M,,2,,,,,,,
,,,,,,,,1,,2023-09-27_15h43.32.617,Motor_Task,2023.2.2,MacIntel,60.0024001,120.6221,121.0238,3,1,0.3949,,19,3,193,3,1,4,R,,3,,,,,,,
,,,,,,,,1,,2023-09-27_15h43.32.617,Motor_Task,2023.2.2,MacIntel,60.0024001,121.0243,121.4214,1,1,0.3888,,19,4,194,4,1,5,I,,1,,,,,,,
,,,,,,,,1,,2023-09-27_15h43.32.617,Motor_Task,2023.2.2,MacIntel,60.0024001,121.4218,121.854,1,1,0.4222,,19,5,195,5,1,6,I,,1,,,,,,,
,,,,,,,,1,,2023-09-27_15h43.32.617,Motor_Task,2023.2.2,MacIntel,60.0024001,121.8543,122.4398,3,1,0.5777,,19,6,196,6,1,7,R,,3,,,,,,,
,,,,,,,,1,,2023-09-27_15h43.32.617,Motor_Task,2023.2.2,MacIntel,60.0024001,122.4403,122.8374,2,1,0.3844,,19,7,197,7,1,8,M,,2,,,,,,,
,,,,,,,,1,,2023-09-27_15h43.32.617,Motor_Task,2023.2.2,MacIntel,60.0024001,122.8378,123.2572,4,1,0.4116,,19,8,198,8,1,9,L,,4,,,,,,,
,,,,,,,,1,,2023-09-27_15h43.32.617,Motor_Task,2023.2.2,MacIntel,60.0024001,123.2576,123.6192,1,1,0.3551,,19,9,199,9,1,10,I,,1,,,,,,,
,,,,,,,,1,,2023-09-27_15h43.32.617,Motor_Task,2023.2.2,MacIntel,60.0024001,123.6305,124.1875,3,1,0.5448,,,,,,,4,R,,3,0,0,0,3,1,,
,,,,,,,,1,,2023-09-27_15h43.32.617,Motor_Task,2023.2.2,MacIntel,60.0024001,124.1881,124.5702,2,0,0.3797,,,,,,,5,I,,1,0,1,1,4,1,,
,,,,,,,,1,,2023-09-27_15h43.32.617,Motor_Task,2023.2.2,MacIntel,60.0024001,124.5707,125.3532,2,1,0.7714,,,,,,,8,M,,2,0,2,2,7,1,,
,,,,,,,,1,,2023-09-27_15h43.32.617,Motor_Task,2023.2.2,MacIntel,60.0024001,125.3536,126.1528,4,1,0.7934,,,,,,,9,L,,4,0,3,3,8,1,,
,,,,,,,,1,,2023-09-27_15h43.32.617,Motor_Task,2023.2.2,MacIntel,60.0024001,126.1532,126.8197,3,1,0.6634,,,,,,,2,R,,3,0,4,4,1,1,,
,,,,,,,,1,,2023-09-27_15h43.32.617,Motor_Task,2023.2.2,MacIntel,60.0024001,126.8199,127.3369,1,1,0.5103,,,,,,,10,I,,1,0,5,5,9,1,,
,,,,,,,,1,,2023-09-27_15h43.32.617,Motor_Task,2023.2.2,MacIntel,60.0024001,127.3373,127.8211,3,1,0.4747,,,,,,,7,R,,3,0,6,6,6,1,,
,,,,,,,,1,,2023-09-27_15h43.32.617,Motor_Task,2023.2.2,MacIntel,60.0024001,127.8215,128.2544,2,1,0.4206,,,,,,,1,M,,2,0,7,7,0,1,,
,,,,,,,,1,,2023-09-27_15h43.32.617,Motor_Task,2023.2.2,MacIntel,60.0024001,128.2549,128.7876,1,1,0.5275,,,,,,,6,I,,1,0,8,8,5,1,,
,,,,,,,,1,,2023-09-27_15h43.32.617,Motor_Task,2023.2.2,MacIntel,60.0024001,128.7878,129.288,2,1,0.4872,,,,,,,3,M,,2,0,9,9,2,1,,
,,,,,,,,1,,2023-09-27_15h43.32.617,Motor_Task,2023.2.2,MacIntel,60.0024001,129.2885,129.7045,3,0,0.4061,,,,,,,1,M,,2,1,0,10,0,1,,
,,,,,,,,1,,2023-09-27_15h43.32.617,Motor_Task,2023.2.2,MacIntel,60.0024001,129.7049,130.2362,2,1,0.5305,,,,,,,3,M,,2,1,1,11,2,1,,
,,,,,,,,1,,2023-09-27_15h43.32.617,Motor_Task,2023.2.2,MacIntel,60.0024001,130.2366,130.8195,1,1,0.5742,,,,,,,6,I,,1,1,2,12,5,1,,
,,,,,,,,1,,2023-09-27_15h43.32.617,Motor_Task,2023.2.2,MacIntel,60.0024001,130.8199,131.3863,3,1,0.5648,,,,,,,2,R,,3,1,3,13,1,1,,
,,,,,,,,1,,2023-09-27_15h43.32.617,Motor_Task,2023.2.2,MacIntel,60.0024001,131.3867,131.8874,4,1,0.4878,,,,,,,9,L,,4,1,4,14,8,1,,
,,,,,,,,1,,2023-09-27_15h43.32.617,Motor_Task,2023.2.2,MacIntel,60.0024001,131.8879,132.3879,1,1,0.4996,,,,,,,5,I,,1,1,5,15,4,1,,
,,,,,,,,1,,2023-09-27_15h43.32.617,Motor_Task,2023.2.2,MacIntel,60.0024001,132.3885,132.8798,2,1,0.4911,,,,,,,8,M,,2,1,6,16,7,1,,
,,,,,,,,1,,2023-09-27_15h43.32.617,Motor_Task,2023.2.2,MacIntel,60.0024001,132.8801,133.5023,1,1,0.6159,,,,,,,10,I,,1,1,7,17,9,1,,
,,,,,,,,1,,2023-09-27_15h43.32.617,Motor_Task,2023.2.2,MacIntel,60.0024001,133.5025,134.1453,3,1,0.6426,,,,,,,4,R,,3,1,8,18,3,1,,
,,,,,,,,1,,2023-09-27_15h43.32.617,Motor_Task,2023.2.2,MacIntel,60.0024001,134.1455,134.6696,3,1,0.5144,,,,,,,7,R,,3,1,9,19,6,1,,
,,,,,,,,1,,2023-09-27_15h43.32.617,Motor_Task,2023.2.2,MacIntel,60.0024001,134.6699,135.254,2,1,0.5775,,,,,,,8,M,,2,2,0,20,7,1,,
,,,,,,,,1,,2023-09-27_15h43.32.617,Motor_Task,2023.2.2,MacIntel,60.0024001,135.2544,135.7871,1,1,0.5228,,,,,,,6,I,,1,2,1,21,5,1,,
,,,,,,,,1,,2023-09-27_15h43.32.617,Motor_Task,2023.2.2,MacIntel,60.0024001,135.7875,136.3702,3,1,0.5779,,,,,,,4,R,,3,2,2,22,3,1,,
,,,,,,,,1,,2023-09-27_15h43.32.617,Motor_Task,2023.2.2,MacIntel,60.0024001,136.3706,136.8538,2,1,0.4737,,,,,,,3,M,,2,2,3,23,2,1,,
,,,,,,,,1,,2023-09-27_15h43.32.617,Motor_Task,2023.2.2,MacIntel,60.0024001,136.8543,137.405,3,1,0.5377,,,,,,,7,R,,3,2,4,24,6,1,,
,,,,,,,,1,,2023-09-27_15h43.32.617,Motor_Task,2023.2.2,MacIntel,60.0024001,137.4054,137.9049,3,1,0.4927,,,,,,,2,R,,3,2,5,25,1,1,,
,,,,,,,,1,,2023-09-27_15h43.32.617,Motor_Task,2023.2.2,MacIntel,60.0024001,137.9053,138.454,1,1,0.5402,,,,,,,10,I,,1,2,6,26,9,1,,
,,,,,,,,1,,2023-09-27_15h43.32.617,Motor_Task,2023.2.2,MacIntel,60.0024001,138.4543,139.0208,2,1,0.5535,,,,,,,1,M,,2,2,7,27,0,1,,
,,,,,,,,1,,2023-09-27_15h43.32.617,Motor_Task,2023.2.2,MacIntel,60.0024001,139.0212,139.6211,4,1,0.5927,,,,,,,9,L,,4,2,8,28,8,1,,
,,,,,,,,1,,2023-09-27_15h43.32.617,Motor_Task,2023.2.2,MacIntel,60.0024001,139.6215,140.1721,1,1,0.5399,,,,,,,5,I,,1,2,9,29,4,1,,
,,,,,,,,1,,2023-09-27_15h43.32.617,Motor_Task,2023.2.2,MacIntel,60.0024001,140.1725,140.6697,4,0,0.4967,,,,,,,7,R,,3,3,0,30,6,1,,
,,,,,,,,1,,2023-09-27_15h43.32.617,Motor_Task,2023.2.2,MacIntel,60.0024001,140.6702,141.3867,2,1,0.7068,,,,,,,1,M,,2,3,1,31,0,1,,
,,,,,,,,1,,2023-09-27_15h43.32.617,Motor_Task,2023.2.2,MacIntel,60.0024001,141.3872,141.8881,2,0,0.4873,,,,,,,10,I,,1,3,2,32,9,1,,
,,,,,,,,1,,2023-09-27_15h43.32.617,Motor_Task,2023.2.2,MacIntel,60.0024001,141.8885,142.5713,3,1,0.6701,,,,,,,4,R,,3,3,3,33,3,1,,
,,,,,,,,1,,2023-09-27_15h43.32.617,Motor_Task,2023.2.2,MacIntel,60.0024001,142.5718,143.2195,2,1,0.6448,,,,,,,8,M,,2,3,4,34,7,1,,
,,,,,,,,1,,2023-09-27_15h43.32.617,Motor_Task,2023.2.2,MacIntel,60.0024001,143.2199,143.7202,3,0,0.4927,,,,,,,9,L,,4,3,5,35,8,1,,
,,,,,,,,1,,2023-09-27_15h43.32.617,Motor_Task,2023.2.2,MacIntel,60.0024001,143.7205,144.3044,1,1,0.5755,,,,,,,5,I,,1,3,6,36,4,1,,
,,,,,,,,1,,2023-09-27_15h43.32.617,Motor_Task,2023.2.2,MacIntel,60.0024001,144.3049,144.803,2,1,0.4932,,,,,,,3,M,,2,3,7,37,2,1,,
,,,,,,,,1,,2023-09-27_15h43.32.617,Motor_Task,2023.2.2,MacIntel,60.0024001,144.8033,145.2873,3,1,0.4739,,,,,,,2,R,,3,3,8,38,1,1,,
,,,,,,,,1,,2023-09-27_15h43.32.617,Motor_Task,2023.2.2,MacIntel,60.0024001,145.2877,145.9048,1,1,0.6119,,,,,,,6,I,,1,3,9,39,5,1,,
,,,,,,,,1,,2023-09-27_15h43.32.617,Motor_Task,2023.2.2,MacIntel,60.0024001,145.9051,146.5531,4,1,0.6434,,,,,,,9,L,,4,4,0,40,8,1,,
,,,,,,,,1,,2023-09-27_15h43.32.617,Motor_Task,2023.2.2,MacIntel,60.0024001,146.5533,147.0703,1,1,0.5072,,,,,,,5,I,,1,4,1,41,4,1,,
,,,,,,,,1,,2023-09-27_15h43.32.617,Motor_Task,2023.2.2,MacIntel,60.0024001,147.0707,147.636,1,1,0.5564,,,,,,,6,I,,1,4,2,42,5,1,,
,,,,,,,,1,,2023-09-27_15h43.32.617,Motor_Task,2023.2.2,MacIntel,60.0024001,147.6364,148.1209,1,1,0.4756,,,,,,,10,I,,1,4,3,43,9,1,,
,,,,,,,,1,,2023-09-27_15h43.32.617,Motor_Task,2023.2.2,MacIntel,60.0024001,148.1214,148.7203,2,1,0.5932,,,,,,,8,M,,2,4,4,44,7,1,,
,,,,,,,,1,,2023-09-27_15h43.32.617,Motor_Task,2023.2.2,MacIntel,60.0024001,148.7208,149.205,3,1,0.4806,,,,,,,2,R,,3,4,5,45,1,1,,
,,,,,,,,1,,2023-09-27_15h43.32.617,Motor_Task,2023.2.2,MacIntel,60.0024001,149.2054,149.7691,2,1,0.5567,,,,,,,3,M,,2,4,6,46,2,1,,
,,,,,,,,1,,2023-09-27_15h43.32.617,Motor_Task,2023.2.2,MacIntel,60.0024001,149.7695,150.2374,3,1,0.4576,,,,,,,7,R,,3,4,7,47,6,1,,
,,,,,,,,1,,2023-09-27_15h43.32.617,Motor_Task,2023.2.2,MacIntel,60.0024001,150.2378,150.937,2,1,0.6886,,,,,,,1,M,,2,4,8,48,0,1,,
,,,,,,,,1,,2023-09-27_15h43.32.617,Motor_Task,2023.2.2,MacIntel,60.0024001,150.9374,151.4216,3,1,0.4828,,,,,,,4,R,,3,4,9,49,3,1,,
,,,,,,,,1,,2023-09-27_15h43.32.617,Motor_Task,2023.2.2,MacIntel,60.0024001,,,,,,,,,,,,,,,,,,,,,151.4222,155.4221