Trigger.started,Trigger.stopped,key_resp_4.keys,key_resp_4.rt,key_resp_4.duration,mouse.x,mouse.y,mouse.leftButton,mouse.midButton,mouse.rightButton,Session,Subject,date,expName,psychopyVersion,OS,frameRate,complex_block.started,complex_block.stopped,key_resp.keys,key_resp.corr,key_resp.rt,key_resp.duration,complex_block_loop.thisRepN,complex_block_loop.thisTrialN,complex_block_loop.thisN,complex_block_loop.thisIndex,complex_block_loop.ran,trial,finger,markerPos,correctResp,new_block_loop.thisRepN,new_block_loop.thisTrialN,new_block_loop.thisN,new_block_loop.thisIndex,new_block_loop.ran,endBuffer.started,endBuffer.stopped
0.0006,11.8183,1,11.7728,,0.18023286,-0.07794525,0,0,0,1,,2023-09-27_15h43.44.346,Motor_Task,2023.2.2,Linux x86_64,30.00210015,,,,,,,,,,,,,,,,,,,,,,
,,,,,,,,,,1,,2023-09-27_15h43.44.346,Motor_Task,2023.2.2,Linux x86_64,30.00210015,11.8934,12.5832,2,1,0.6696,,0,0,0,0,1,1,M,,2,,,,,,,
,,,,,,,,,,1,,2023-09-27_15h43.44.346,Motor_Task,2023.2.2,Linux x86_64,30.00210015,12.5851,13.1489,3,1,0.56,,0,1,1,1,1,2,R,,3,,,,,,,
,,,,,,,,,,1,,2023-09-27_15h43.44.346,Motor_Task,2023.2.2,Linux x86_64,30.00210015,13.1503,13.7826,2,1,0.6127,,0,2,2,2,1,3,M,,2,,,,,,,
,,,,,,,,,,1,,2023-09-27_15h43.44.346,Motor_Task,2023.2.2,Linux x86_64,30.00210015,13.7839,14.3493,3,1,0.54,,0,3,3,3,1,4,R,,3,,,,,,,
,,,,,,,,,,1,,2023-09-27_15h43.44.346,Motor_Task,2023.2.2,Linux x86_64,30.00210015,14.3505,14.9491,1,1,0.5896,,0,4,4,4,1,5,I,,1,,,,,,,
,,,,,,,,,,1,,2023-09-27_15h43.44.346,Motor_Task,2023.2.2,Linux x86_64,30.00210015,14.9501,15.5823,1,1,0.6112,,0,5,5,5,1,6,I,,1,,,,,,,
,,,,,,,,,,1,,2023-09-27_15h43.44.346,Motor_Task,2023.2.2,Linux x86_64,30.00210015,15.5835,16.1819,3,1,0.59,,0,6,6,6,1,7,R,,3,,,,,,,
,,,,,,,,,,1,,2023-09-27_15h43.44.346,Motor_Task,2023.2.2,Linux x86_64,30.00210015,16.1828,16.7822,2,1,0.5844,,0,7,7,7,1,8,M,,2,,,,,,,
,,,,,,,,,,1,,2023-09-27_15h43.44.346,Motor_Task,2023.2.2,Linux x86_64,30.00210015,16.7832,17.4168,4,1,0.6189,,0,8,8,8,1,9,L,,4,,,,,,,
,,,,,,,,,,1,,2023-09-27_15h43.44.346,Motor_Task,2023.2.2,Linux x86_64,30.00210015,17.4179,18.049,1,1,0.6158,,0,9,9,9,1,10,I,,1,,,,,,,
,,,,,,,,,,1,,2023-09-27_15h43.44.346,Motor_Task,2023.2.2,Linux x86_64,30.00210015,18.0501,18.6155,2,1,0.5402,,1,0,10,0,1,1,M,,2,,,,,,,
,,,,,,,,,,1,,2023-09-27_15h43.44.346,Motor_Task,2023.2.2,Linux x86_64,30.00210015,18.6166,19.1152,3,1,0.4954,,1,1,11,1,1,2,R,,3,,,,,,,
,,,,,,,,,,1,,2023-09-27_15h43.44.346,Motor_Task,2023.2.2,Linux x86_64,30.00210015,19.1161,19.7156,2,1,0.5932,,1,2,12,2,1,3,M,,2,,,,,,,
,,,,,,,,,,1,,2023-09-27_15h43.44.346,Motor_Task,2023.2.2,Linux x86_64,30.00210015,19.7168,20.3828,3,1,0.6406,,1,3,13,3,1,4,R,,3,,,,,,,
,,,,,,,,,,1,,2023-09-27_15h43.44.346,Motor_Task,2023.2.2,Linux x86_64,30.00210015,20.3837,20.9822,1,1,0.5734,,1,4,14,4,1,5,I,,1,,,,,,,
,,,,,,,,,,1,,2023-09-27_15h43.44.346,Motor_Task,2023.2.2,Linux x86_64,30.00210015,20.9832,21.6153,1,1,0.6279,,1,5,15,5,1,6,I,,1,,,,,,,
,,,,,,,,,,1,,2023-09-27_15h43.44.346,Motor_Task,2023.2.2,Linux x86_64,30.00210015,21.6163,22.3154,3,1,0.6748,,1,6,16,6,1,7,R,,3,,,,,,,
,,,,,,,,,,1,,2023-09-27_15h43.44.346,Motor_Task,2023.2.2,Linux x86_64,30.00210015,22.3165,22.8833,2,1,0.565,,1,7,17,7,1,8,M,,2,,,,,,,
,,,,,,,,,,1,,2023-09-27_15h43.44.346,Motor_Task,2023.2.2,Linux x86_64,30.00210015,22.8843,23.4825,4,1,0.5725,,1,8,18,8,1,9,L,,4,,,,,,,
,,,,,,,,,,1,,2023-09-27_15h43.44.346,Motor_Task,2023.2.2,Linux x86_64,30.00210015,23.4836,24.1155,1,1,0.607,,1,9,19,9,1,10,I,,1,,,,,,,
,,,,,,,,,,1,,2023-09-27_15h43.44.346,Motor_Task,2023.2.2,Linux x86_64,30.00210015,24.1166,24.7155,2,1,0.5742,,2,0,20,0,1,1,M,,2,,,,,,,
,,,,,,,,,,1,,2023-09-27_15h43.44.346,Motor_Task,2023.2.2,Linux x86_64,30.00210015,24.7165,25.215,3,1,0.4967,,2,1,21,1,1,2,R,,3,,,,,,,
,,,,,,,,,,1,,2023-09-27_15h43.44.346,Motor_Task,2023.2.2,Linux x86_64,30.00210015,25.216,25.8823,2,1,0.6408,,2,2,22,2,1,3,M,,2,,,,,,,
,,,,,,,,,,1,,2023-09-27_15h43.44.346,Motor_Task,2023.2.2,Linux x86_64,30.00210015,25.8832,26.5158,3,1,0.6066,,2,3,23,3,1,4,R,,3,,,,,,,
,,,,,,,,,,1,,2023-09-27_15h43.44.346,Motor_Task,2023.2.2,Linux x86_64,30.00210015,26.517,27.082,1,1,0.5574,,2,4,24,4,1,5,I,,1,,,,,,,
,,,,,,,,,,1,,2023-09-27_15h43.44.346,Motor_Task,2023.2.2,Linux x86_64,30.00210015,27.0829,27.7156,1,1,0.6132,,2,5,25,5,1,6,I,,1,,,,,,,
,,,,,,,,,,1,,2023-09-27_15h43.44.346,Motor_Task,2023.2.2,Linux x86_64,30.00210015,27.7168,28.3488,3,1,0.6231,,2,6,26,6,1,7,R,,3,,,,,,,
,,,,,,,,,,1,,2023-09-27_15h43.44.346,Motor_Task,2023.2.2,Linux x86_64,30.00210015,28.3501,29.0488,2,1,0.6755,,2,7,27,7,1,8,M,,2,,,,,,,
,,,,,,,,,,1,,2023-09-27_15h43.44.346,Motor_Task,2023.2.2,Linux x86_64,30.00210015,29.0498,29.6821,4,1,0.6141,,2,8,28,8,1,9,L,,4,,,,,,,
,,,,,,,,,,1,,2023-09-27_15h43.44.346,Motor_Task,2023.2.2,Linux x86_64,30.00210015,29.6837,30.3489,1,1,0.6513,,2,9,29,9,1,10,I,,1,,,,,,,
,,,,,,,,,,1,,2023-09-27_15h43.44.346,Motor_Task,2023.2.2,Linux x86_64,30.00210015,30.3498,30.9824,2,1,0.6096,,3,0,30,0,1,1,M,,2,,,,,,,
,,,,,,,,,,1,,2023-09-27_15h43.44.346,Motor_Task,2023.2.2,Linux x86_64,30.00210015,30.9835,31.4823,3,1,0.4807,,3,1,31,1,1,2,R,,3,,,,,,,
,,,,,,,,,,1,,2023-09-27_15h43.44.346,Motor_Task,2023.2.2,Linux x86_64,30.00210015,31.4834,32.0828,2,1,0.5983,,3,2,32,2,1,3,M,,2,,,,,,,
,,,,,,,,,,1,,2023-09-27_15h43.44.346,Motor_Task,2023.2.2,Linux x86_64,30.00210015,32.0841,32.6816,3,1,0.5913,,3,3,33,3,1,4,R,,3,,,,,,,
,,,,,,,,,,1,,2023-09-27_15h43.44.346,Motor_Task,2023.2.2,Linux x86_64,30.00210015,32.6829,33.3488,1,1,0.6472,,3,4,34,4,1,5,I,,1,,,,,,,
,,,,,,,,,,1,,2023-09-27_15h43.44.346,Motor_Task,2023.2.2,Linux x86_64,30.00210015,33.3498,33.415,1,1,0.0634,,3,5,35,5,1,6,I,,1,,,,,,,
,,,,,,,,,,1,,2023-09-27_15h43.44.346,Motor_Task,2023.2.2,Linux x86_64,30.00210015,33.4162,34.1152,3,1,0.6742,,3,6,36,6,1,7,R,,3,,,,,,,
,,,,,,,,,,1,,2023-09-27_15h43.44.346,Motor_Task,2023.2.2,Linux x86_64,30.00210015,34.1163,34.7154,2,1,0.5808,,3,7,37,7,1,8,M,,2,,,,,,,
,,,,,,,,,,1,,2023-09-27_15h43.44.346,Motor_Task,2023.2.2,Linux x86_64,30.00210015,34.7165,35.382,4,1,0.6467,,3,8,38,8,1,9,L,,4,,,,,,,
,,,,,,,,,,1,,2023-09-27_15h43.44.346,Motor_Task,2023.2.2,Linux x86_64,30.00210015,35.383,36.0153,1,1,0.6075,,3,9,39,9,1,10,I,,1,,,,,,,
,,,,,,,,,,1,,2023-09-27_15h43.44.346,Motor_Task,2023.2.2,Linux x86_64,30.00210015,36.0162,36.582,2,1,0.5481,,4,0,40,0,1,1,M,,2,,,,,,,
,,,,,,,,,,1,,2023-09-27_15h43.44.346,Motor_Task,2023.2.2,Linux x86_64,30.00210015,36.5832,37.115,3,1,0.5123,,4,1,41,1,1,2,R,,3,,,,,,,
,,,,,,,,,,1,,2023-09-27_15h43.44.346,Motor_Task,2023.2.2,Linux x86_64,30.00210015,37.1159,37.7815,2,1,0.6616,,4,2,42,2,1,3,M,,2,,,,,,,
,,,,,,,,,,1,,2023-09-27_15h43.44.346,Motor_Task,2023.2.2,Linux x86_64,30.00210015,37.7824,38.415,3,1,0.6103,,4,3,43,3,1,4,R,,3,,,,,,,
,,,,,,,,,,1,,2023-09-27_15h43.44.346,Motor_Task,2023.2.2,Linux x86_64,30.00210015,38.4161,39.0149,2,0,0.5976,,4,4,44,4,1,5,I,,1,,,,,,,
,,,,,,,,,,1,,2023-09-27_15h43.44.346,Motor_Task,2023.2.2,Linux x86_64,30.00210015,39.0161,39.6492,1,1,0.6321,,4,5,45,5,1,6,I,,1,,,,,,,
,,,,,,,,,,1,,2023-09-27_15h43.44.346,Motor_Task,2023.2.2,Linux x86_64,30.00210015,39.6499,40.3485,3,1,0.6974,,4,6,46,6,1,7,R,,3,,,,,,,
,,,,,,,,,,1,,2023-09-27_15h43.44.346,Motor_Task,2023.2.2,Linux x86_64,30.00210015,40.3494,40.9819,2,1,0.6188,,4,7,47,7,1,8,M,,2,,,,,,,
,,,,,,,,,,1,,2023-09-27_15h43.44.346,Motor_Task,2023.2.2,Linux x86_64,30.00210015,40.9828,41.6158,4,1,0.6316,,4,8,48,8,1,9,L,,4,,,,,,,
,,,,,,,,,,1,,2023-09-27_15h43.44.346,Motor_Task,2023.2.2,Linux x86_64,30.00210015,41.6167,42.2485,1,1,0.6067,,4,9,49,9,1,10,I,,1,,,,,,,
,,,,,,,,,,1,,2023-09-27_15h43.44.346,Motor_Task,2023.2.2,Linux x86_64,30.00210015,42.2495,42.8153,2,1,0.5412,,5,0,50,0,1,1,M,,2,,,,,,,
,,,,,,,,,,1,,2023-09-27_15h43.44.346,Motor_Task,2023.2.2,Linux x86_64,30.00210015,42.8164,43.4151,3,1,0.5797,,5,1,51,1,1,2,R,,3,,,,,,,
,,,,,,,,,,1,,2023-09-27_15h43.44.346,Motor_Task,2023.2.2,Linux x86_64,30.00210015,43.4163,44.0816,2,1,0.6447,,5,2,52,2,1,3,M,,2,,,,,,,
,,,,,,,,,,1,,2023-09-27_15h43.44.346,Motor_Task,2023.2.2,Linux x86_64,30.00210015,44.0826,44.8481,3,1,0.7614,,5,3,53,3,1,4,R,,3,,,,,,,
,,,,,,,,,,1,,2023-09-27_15h43.44.346,Motor_Task,2023.2.2,Linux x86_64,30.00210015,44.8493,45.0488,3,0,0.1753,,5,4,54,4,1,5,I,,1,,,,,,,
,,,,,,,,,,1,,2023-09-27_15h43.44.346,Motor_Task,2023.2.2,Linux x86_64,30.00210015,45.0498,45.8479,1,1,0.7869,,5,5,55,5,1,6,I,,1,,,,,,,
,,,,,,,,,,1,,2023-09-27_15h43.44.346,Motor_Task,2023.2.2,Linux x86_64,30.00210015,45.8484,46.5483,3,1,0.6899,,5,6,56,6,1,7,R,,3,,,,,,,
,,,,,,,,,,1,,2023-09-27_15h43.44.346,Motor_Task,2023.2.2,Linux x86_64,30.00210015,46.5493,47.1819,2,1,0.6101,,5,7,57,7,1,8,M,,2,,,,,,,
,,,,,,,,,,1,,2023-09-27_15h43.44.346,Motor_Task,2023.2.2,Linux x86_64,30.00210015,47.1831,47.9486,4,1,0.7402,,5,8,58,8,1,9,L,,4,,,,,,,
,,,,,,,,,,1,,2023-09-27_15h43.44.346,Motor_Task,2023.2.2,Linux x86_64,30.00210015,47.9498,48.6157,1,1,0.6647,,5,9,59,9,1,10,I,,1,,,,,,,
,,,,,,,,,,1,,2023-09-27_15h43.44.346,Motor_Task,2023.2.2,Linux x86_64,30.00210015,48.6169,49.1821,2,1,0.5528,,6,0,60,0,1,1,M,,2,,,,,,,
,,,,,,,,,,1,,2023-09-27_15h43.44.346,Motor_Task,2023.2.2,Linux x86_64,30.00210015,49.1831,49.648,3,1,0.4607,,6,1,61,1,1,2,R,,3,,,,,,,
,,,,,,,,,,1,,2023-09-27_15h43.44.346,Motor_Task,2023.2.2,Linux x86_64,30.00210015,49.6491,50.2148,2,1,0.5436,,6,2,62,2,1,3,M,,2,,,,,,,
,,,,,,,,,,1,,2023-09-27_15h43.44.346,Motor_Task,2023.2.2,Linux x86_64,30.00210015,50.2159,50.8153,3,1,0.5858,,6,3,63,3,1,4,R,,3,,,,,,,
,,,,,,,,,,1,,2023-09-27_15h43.44.346,Motor_Task,2023.2.2,Linux x86_64,30.00210015,50.8163,51.4814,1,1,0.6621,,6,4,64,4,1,5,I,,1,,,,,,,
,,,,,,,,,,1,,2023-09-27_15h43.44.346,Motor_Task,2023.2.2,Linux x86_64,30.00210015,51.4827,52.115,1,1,0.6068,,6,5,65,5,1,6,I,,1,,,,,,,
,,,,,,,,,,1,,2023-09-27_15h43.44.346,Motor_Task,2023.2.2,Linux x86_64,30.00210015,52.116,52.8817,3,1,0.7405,,6,6,66,6,1,7,R,,3,,,,,,,
,,,,,,,,,,1,,2023-09-27_15h43.44.346,Motor_Task,2023.2.2,Linux x86_64,30.00210015,52.8828,53.5151,2,1,0.6072,,6,7,67,7,1,8,M,,2,,,,,,,
,,,,,,,,,,1,,2023-09-27_15h43.44.346,Motor_Task,2023.2.2,Linux x86_64,30.00210015,53.5162,54.1151,4,1,0.5746,,6,8,68,8,1,9,L,,4,,,,,,,
,,,,,,,,,,1,,2023-09-27_15h43.44.346,Motor_Task,2023.2.2,Linux x86_64,30.00210015,54.1159,54.7151,1,1,0.5745,,6,9,69,9,1,10,I,,1,,,,,,,
,,,,,,,,,,1,,2023-09-27_15h43.44.346,Motor_Task,2023.2.2,Linux x86_64,30.00210015,54.7161,55.2818,2,1,0.5413,,7,0,70,0,1,1,M,,2,,,,,,,
,,,,,,,,,,1,,2023-09-27_15h43.44.346,Motor_Task,2023.2.2,Linux x86_64,30.00210015,55.283,55.7472,3,1,0.4534,,7,1,71,1,1,2,R,,3,,,,,,,
,,,,,,,,,,1,,2023-09-27_15h43.44.346,Motor_Task,2023.2.2,Linux x86_64,30.00210015,55.7479,56.415,2,1,0.6417,,7,2,72,2,1,3,M,,2,,,,,,,
,,,,,,,,,,1,,2023-09-27_15h43.44.346,Motor_Task,2023.2.2,Linux x86_64,30.00210015,56.4162,57.2483,3,1,0.8076,,7,3,73,3,1,4,R,,3,,,,,,,
,,,,,,,,,,1,,2023-09-27_15h43.44.346,Motor_Task,2023.2.2,Linux x86_64,30.00210015,57.2491,57.8815,1,1,0.6135,,7,4,74,4,1,5,I,,1,,,,,,,
,,,,,,,,,,1,,2023-09-27_15h43.44.346,Motor_Task,2023.2.2,Linux x86_64,30.00210015,57.8826,58.5481,1,1,0.6487,,7,5,75,5,1,6,I,,1,,,,,,,
,,,,,,,,,,1,,2023-09-27_15h43.44.346,Motor_Task,2023.2.2,Linux x86_64,30.00210015,58.549,59.3479,3,1,0.7749,,7,6,76,6,1,7,R,,3,,,,,,,
,,,,,,,,,,1,,2023-09-27_15h43.44.346,Motor_Task,2023.2.2,Linux x86_64,30.00210015,59.3493,59.9813,2,1,0.6253,,7,7,77,7,1,8,M,,2,,,,,,,
,,,,,,,,,,1,,2023-09-27_15h43.44.346,Motor_Task,2023.2.2,Linux x86_64,30.00210015,59.983,60.5815,4,1,0.5772,,7,8,78,8,1,9,L,,4,,,,,,,
,,,,,,,,,,1,,2023-09-27_15h43.44.346,Motor_Task,2023.2.2,Linux x86_64,30.00210015,60.583,61.1815,1,1,0.5845,,7,9,79,9,1,10,I,,1,,,,,,,
,,,,,,,,,,1,,2023-09-27_15h43.44.346,Motor_Task,2023.2.2,Linux x86_64,30.00210015,61.1825,61.7481,2,1,0.5548,,8,0,80,0,1,1,M,,2,,,,,,,
,,,,,,,,,,1,,2023-09-27_15h43.44.346,Motor_Task,2023.2.2,Linux x86_64,30.00210015,61.7492,62.2814,3,1,0.5138,,8,1,81,1,1,2,R,,3,,,,,,,
,,,,,,,,,,1,,2023-09-27_15h43.44.346,Motor_Task,2023.2.2,Linux x86_64,30.00210015,62.2825,63.0145,2,1,0.7158,,8,2,82,2,1,3,M,,2,,,,,,,
,,,,,,,,,,1,,2023-09-27_15h43.44.346,Motor_Task,2023.2.2,Linux x86_64,30.00210015,63.0155,63.5814,3,1,0.5502,,8,3,83,3,1,4,R,,3,,,,,,,
,,,,,,,,,,1,,2023-09-27_15h43.44.346,Motor_Task,2023.2.2,Linux x86_64,30.00210015,63.5849,64.2481,1,1,0.6376,,8,4,84,4,1,5,I,,1,,,,,,,
,,,,,,,,,,1,,2023-09-27_15h43.44.346,Motor_Task,2023.2.2,Linux x86_64,30.00210015,64.249,64.8814,1,1,0.6082,,8,5,85,5,1,6,I,,1,,,,,,,
,,,,,,,,,,1,,2023-09-27_15h43.44.346,Motor_Task,2023.2.2,Linux x86_64,30.00210015,64.8823,65.5148,3,1,0.6081,,8,6,86,6,1,7,R,,3,,,,,,,
,,,,,,,,,,1,,2023-09-27_15h43.44.346,Motor_Task,2023.2.2,Linux x86_64,30.00210015,65.5159,66.0807,2,1,0.5549,,8,7,87,7,1,8,M,,2,,,,,,,
,,,,,,,,,,1,,2023-09-27_15h43.44.346,Motor_Task,2023.2.2,Linux x86_64,30.00210015,66.0812,66.6148,4,1,0.5085,,8,8,88,8,1,9,L,,4,,,,,,,
,,,,,,,,,,1,,2023-09-27_15h43.44.346,Motor_Task,2023.2.2,Linux x86_64,30.00210015,66.6158,67.2483,1,1,0.6079,,8,9,89,9,1,10,I,,1,,,,,,,
,,,,,,,,,,1,,2023-09-27_15h43.44.346,Motor_Task,2023.2.2,Linux x86_64,30.00210015,67.2494,67.7814,2,1,0.5089,,9,0,90,0,1,1,M,,2,,,,,,,
,,,,,,,,,,1,,2023-09-27_15h43.44.346,Motor_Task,2023.2.2,Linux x86_64,30.00210015,67.7824,68.2814,3,1,0.4751,,9,1,91,1,1,2,R,,3,,,,,,,
,,,,,,,,,,1,,2023-09-27_15h43.44.346,Motor_Task,2023.2.2,Linux x86_64,30.00210015,68.2825,68.8482,2,1,0.5407,,9,2,92,2,1,3,M,,2,,,,,,,
,,,,,,,,,,1,,2023-09-27_15h43.44.346,Motor_Task,2023.2.2,Linux x86_64,30.00210015,68.8492,69.3481,3,1,0.4812,,9,3,93,3,1,4,R,,3,,,,,,,
,,,,,,,,,,1,,2023-09-27_15h43.44.346,Motor_Task,2023.2.2,Linux x86_64,30.00210015,69.3491,69.9149,1,1,0.5429,,9,4,94,4,1,5,I,,1,,,,,,,
,,,,,,,,,,1,,2023-09-27_15h43.44.346,Motor_Task,2023.2.2,Linux x86_64,30.00210015,69.9159,70.4812,1,1,0.542,,9,5,95,5,1,6,I,,1,,,,,,,
,,,,,,,,,,1,,2023-09-27_15h43.44.346,Motor_Task,2023.2.2,Linux x86_64,30.00210015,70.4822,71.148,3,1,0.6461,,9,6,96,6,1,7,R,,3,,,,,,,
,,,,,,,,,,1,,2023-09-27_15h43.44.346,Motor_Task,2023.2.2,Linux x86_64,30.00210015,71.1491,71.8814,2,1,0.7073,,9,7,97,7,1,8,M,,2,,,,,,,
,,,,,,,,,,1,,2023-09-27_15h43.44.346,Motor_Task,2023.2.2,Linux x86_64,30.00210015,71.8828,72.4809,4,1,0.5952,,9,8,98,8,1,9,L,,4,,,,,,,
,,,,,,,,,,1,,2023-09-27_15h43.44.346,Motor_Task,2023.2.2,Linux x86_64,30.00210015,72.4818,72.9817,1,1,0.4872,,9,9,99,9,1,10,I,,1,,,,,,,
,,,,,,,,,,1,,2023-09-27_15h43.44.346,Motor_Task,2023.2.2,Linux x86_64,30.00210015,72.9831,73.5813,2,1,0.5809,,10,0,100,0,1,1,M,,2,,,,,,,
,,,,,,,,,,1,,2023-09-27_15h43.44.346,Motor_Task,2023.2.2,Linux x86_64,30.00210015,73.5823,73.681,2,0,0.0959,,10,1,101,1,1,2,R,,3,,,,,,,
,,,,,,,,,,1,,2023-09-27_15h43.44.346,Motor_Task,2023.2.2,Linux x86_64,30.00210015,73.6821,74.4143,2,1,0.7283,,10,2,102,2,1,3,M,,2,,,,,,,
,,,,,,,,,,1,,2023-09-27_15h43.44.346,Motor_Task,2023.2.2,Linux x86_64,30.00210015,74.4154,75.0475,3,1,0.6309,,10,3,103,3,1,4,R,,3,,,,,,,
,,,,,,,,,,1,,2023-09-27_15h43.44.346,Motor_Task,2023.2.2,Linux x86_64,30.00210015,75.0486,75.7147,1,1,0.6586,,10,4,104,4,1,5,I,,1,,,,,,,
,,,,,,,,,,1,,2023-09-27_15h43.44.346,Motor_Task,2023.2.2,Linux x86_64,30.00210015,75.716,76.4144,1,1,0.6805,,10,5,105,5,1,6,I,,1,,,,,,,
,,,,,,,,,,1,,2023-09-27_15h43.44.346,Motor_Task,2023.2.2,Linux x86_64,30.00210015,76.4154,77.2479,3,1,0.8071,,10,6,106,6,1,7,R,,3,,,,,,,
,,,,,,,,,,1,,2023-09-27_15h43.44.346,Motor_Task,2023.2.2,Linux x86_64,30.00210015,77.249,78.0478,2,1,0.7737,,10,7,107,7,1,8,M,,2,,,,,,,
,,,,,,,,,,1,,2023-09-27_15h43.44.346,Motor_Task,2023.2.2,Linux x86_64,30.00210015,78.0488,78.6477,3,0,0.5884,,10,8,108,8,1,9,L,,4,,,,,,,
,,,,,,,,,,1,,2023-09-27_15h43.44.346,Motor_Task,2023.2.2,Linux x86_64,30.00210015,78.6488,79.148,4,0,0.491,,10,9,109,9,1,10,I,,1,,,,,,,
,,,,,,,,,,1,,2023-09-27_15h43.44.346,Motor_Task,2023.2.2,Linux x86_64,30.00210015,79.149,79.9812,2,1,0.8064,,11,0,110,0,1,1,M,,2,,,,,,,
,,,,,,,,,,1,,2023-09-27_15h43.44.346,Motor_Task,2023.2.2,Linux x86_64,30.00210015,79.9822,81.0147,1,0,1.025,,11,1,111,1,1,2,R,,3,,,,,,,
,,,,,,,,,,1,,2023-09-27_15h43.44.346,Motor_Task,2023.2.2,Linux x86_64,30.00210015,81.0157,82.0479,2,1,1.0125,,11,2,112,2,1,3,M,,2,,,,,,,
,,,,,,,,,,1,,2023-09-27_15h43.44.346,Motor_Task,2023.2.2,Linux x86_64,30.00210015,82.0492,82.6479,3,1,0.5975,,11,3,113,3,1,4,R,,3,,,,,,,
,,,,,,,,,,1,,2023-09-27_15h43.44.346,Motor_Task,2023.2.2,Linux x86_64,30.00210015,82.6489,83.3476,1,1,0.6851,,11,4,114,4,1,5,I,,1,,,,,,,
,,,,,,,,,,1,,2023-09-27_15h43.44.346,Motor_Task,2023.2.2,Linux x86_64,30.00210015,83.3485,83.9144,1,1,0.5517,,11,5,115,5,1,6,I,,1,,,,,,,
,,,,,,,,,,1,,2023-09-27_15h43.44.346,Motor_Task,2023.2.2,Linux x86_64,30.00210015,83.9154,84.8144,3,1,0.8747,,11,6,116,6,1,7,R,,3,,,,,,,
,,,,,,,,,,1,,2023-09-27_15h43.44.346,Motor_Task,2023.2.2,Linux x86_64,30.00210015,84.8157,85.5477,2,1,0.7258,,11,7,117,7,1,8,M,,2,,,,,,,
,,,,,,,,,,1,,2023-09-27_15h43.44.346,Motor_Task,2023.2.2,Linux x86_64,30.00210015,85.5487,86.3143,4,1,0.7402,,11,8,118,8,1,9,L,,4,,,,,,,
,,,,,,,,,,1,,2023-09-27_15h43.44.346,Motor_Task,2023.2.2,Linux x86_64,30.00210015,86.3155,87.0143,1,1,0.6852,,11,9,119,9,1,10,I,,1,,,,,,,
,,,,,,,,,,1,,2023-09-27_15h43.44.346,Motor_Task,2023.2.2,Linux x86_64,30.00210015,87.0153,87.6481,2,1,0.6091,,12,0,120,0,1,1,M,,2,,,,,,,
,,,,,,,,,,1,,2023-09-27_15h43.44.346,Motor_Task,2023.2.2,Linux x86_64,30.00210015,87.6492,88.2474,3,1,0.5971,,12,1,121,1,1,2,R,,3,,,,,,,
,,,,,,,,,,1,,2023-09-27_15h43.44.346,Motor_Task,2023.2.2,Linux x86_64,30.00210015,88.2483,89.0142,2,1,0.7405,,12,2,122,2,1,3,M,,2,,,,,,,
,,,,,,,,,,1,,2023-09-27_15h43.44.346,Motor_Task,2023.2.2,Linux x86_64,30.00210015,89.0153,89.7478,3,1,0.7065,,12,3,123,3,1,4,R,,3,,,,,,,
,,,,,,,,,,1,,2023-09-27_15h43.44.346,Motor_Task,2023.2.2,Linux x86_64,30.00210015,89.7488,90.4141,1,1,0.6513,,12,4,124,4,1,5,I,,1,,,,,,,
,,,,,,,,,,1,,2023-09-27_15h43.44.346,Motor_Task,2023.2.2,Linux x86_64,30.00210015,90.4151,91.0143,1,1,0.5744,,12,5,125,5,1,6,I,,1,,,,,,,
,,,,,,,,,,1,,2023-09-27_15h43.44.346,Motor_Task,2023.2.2,Linux x86_64,30.00210015,91.0152,91.6815,3,1,0.6654,,12,6,126,6,1,7,R,,3,,,,,,,
,,,,,,,,,,1,,2023-09-27_15h43.44.346,Motor_Task,2023.2.2,Linux x86_64,30.00210015,91.6824,92.3475,2,1,0.6425,,12,7,127,7,1,8,M,,2,,,,,,,
,,,,,,,,,,1,,2023-09-27_15h43.44.346,Motor_Task,2023.2.2,Linux x86_64,30.00210015,92.3487,93.081,4,1,0.7071,,12,8,128,8,1,9,L,,4,,,,,,,
,,,,,,,,,,1,,2023-09-27_15h43.44.346,Motor_Task,2023.2.2,Linux x86_64,30.00210015,93.0822,93.8144,1,1,0.7164,,12,9,129,9,1,10,I,,1,,,,,,,
,,,,,,,,,,1,,2023-09-27_15h43.44.346,Motor_Task,2023.2.2,Linux x86_64,30.00210015,93.8155,94.5141,2,1,0.6745,,13,0,130,0,1,1,M,,2,,,,,,,
,,,,,,,,,,1,,2023-09-27_15h43.44.346,Motor_Task,2023.2.2,Linux x86_64,30.00210015,94.515,95.0808,3,1,0.5584,,13,1,131,1,1,2,R,,3,,,,,,,
,,,,,,,,,,1,,2023-09-27_15h43.44.346,Motor_Task,2023.2.2,Linux x86_64,30.00210015,95.0818,95.7144,2,1,0.6249,,13,2,132,2,1,3,M,,2,,,,,,,
,,,,,,,,,,1,,2023-09-27_15h43.44.346,Motor_Task,2023.2.2,Linux x86_64,30.00210015,95.7153,96.2807,3,1,0.5638,,13,3,133,3,1,4,R,,3,,,,,,,
,,,,,,,,,,1,,2023-09-27_15h43.44.346,Motor_Task,2023.2.2,Linux x86_64,30.00210015,96.2817,96.8811,1,1,0.5744,,13,4,134,4,1,5,I,,1,,,,,,,
,,,,,,,,,,1,,2023-09-27_15h43.44.346,Motor_Task,2023.2.2,Linux x86_64,30.00210015,96.8822,97.4807,1,1,0.5761,,13,5,135,5,1,6,I,,1,,,,,,,
,,,,,,,,,,1,,2023-09-27_15h43.44.346,Motor_Task,2023.2.2,Linux x86_64,30.00210015,97.4814,98.1475,3,1,0.6601,,13,6,136,6,1,7,R,,3,,,,,,,
,,,,,,,,,,1,,2023-09-27_15h43.44.346,Motor_Task,2023.2.2,Linux x86_64,30.00210015,98.1485,98.6809,2,1,0.515,,13,7,137,7,1,8,M,,2,,,,,,,
,,,,,,,,,,1,,2023-09-27_15h43.44.346,Motor_Task,2023.2.2,Linux x86_64,30.00210015,98.6818,99.1138,4,1,0.4283,,13,8,138,8,1,9,L,,4,,,,,,,
,,,,,,,,,,1,,2023-09-27_15h43.44.346,Motor_Task,2023.2.2,Linux x86_64,30.00210015,99.1147,99.6472,1,1,0.5301,,13,9,139,9,1,10,I,,1,,,,,,,
,,,,,,,,,,1,,2023-09-27_15h43.44.346,Motor_Task,2023.2.2,Linux x86_64,30.00210015,99.6481,100.3806,2,1,0.7313,,14,0,140,0,1,1,M,,2,,,,,,,
,,,,,,,,,,1,,2023-09-27_15h43.44.346,Motor_Task,2023.2.2,Linux x86_64,30.00210015,100.3819,100.7141,3,1,0.3071,,14,1,141,1,1,2,R,,3,,,,,,,
,,,,,,,,,,1,,2023-09-27_15h43.44.346,Motor_Task,2023.2.2,Linux x86_64,30.00210015,100.7152,101.4142,2,1,0.6738,,14,2,142,2,1,3,M,,2,,,,,,,
,,,,,,,,,,1,,2023-09-27_15h43.44.346,Motor_Task,2023.2.2,Linux x86_64,30.00210015,101.4153,101.9808,3,1,0.5406,,14,3,143,3,1,4,R,,3,,,,,,,
,,,,,,,,,,1,,2023-09-27_15h43.44.346,Motor_Task,2023.2.2,Linux x86_64,30.00210015,101.9817,102.6475,1,1,0.6589,,14,4,144,4,1,5,I,,1,,,,,,,
,,,,,,,,,,1,,2023-09-27_15h43.44.346,Motor_Task,2023.2.2,Linux x86_64,30.00210015,102.6485,103.2806,1,1,0.6227,,14,5,145,5,1,6,I,,1,,,,,,,
,,,,,,,,,,1,,2023-09-27_15h43.44.346,Motor_Task,2023.2.2,Linux x86_64,30.00210015,103.2817,103.8808,3,1,0.5743,,14,6,146,6,1,7,R,,3,,,,,,,
,,,,,,,,,,1,,2023-09-27_15h43.44.346,Motor_Task,2023.2.2,Linux x86_64,30.00210015,103.882,104.3809,2,1,0.49,,14,7,147,7,1,8,M,,2,,,,,,,
,,,,,,,,,,1,,2023-09-27_15h43.44.346,Motor_Task,2023.2.2,Linux x86_64,30.00210015,104.382,105.0473,4,1,0.6411,,14,8,148,8,1,9,L,,4,,,,,,,
,,,,,,,,,,1,,2023-09-27_15h43.44.346,Motor_Task,2023.2.2,Linux x86_64,30.00210015,105.0483,105.6477,1,1,0.5861,,14,9,149,9,1,10,I,,1,,,,,,,
,,,,,,,,,,1,,2023-09-27_15h43.44.346,Motor_Task,2023.2.2,Linux x86_64,30.00210015,105.6489,106.2144,2,1,0.555,,15,0,150,0,1,1,M,,2,,,,,,,
,,,,,,,,,,1,,2023-09-27_15h43.44.346,Motor_Task,2023.2.2,Linux x86_64,30.00210015,106.2153,106.7473,3,1,0.5251,,15,1,151,1,1,2,R,,3,,,,,,,
,,,,,,,,,,1,,2023-09-27_15h43.44.346,Motor_Task,2023.2.2,Linux x86_64,30.00210015,106.7484,107.3472,2,1,0.5955,,15,2,152,2,1,3,M,,2,,,,,,,
,,,,,,,,,,1,,2023-09-27_15h43.44.346,Motor_Task,2023.2.2,Linux x86_64,30.00210015,107.3482,107.8823,3,1,0.5145,,15,3,153,3,1,4,R,,3,,,,,,,
,,,,,,,,,,1,,2023-09-27_15h43.44.346,Motor_Task,2023.2.2,Linux x86_64,30.00210015,107.8833,108.5142,1,1,0.6144,,15,4,154,4,1,5,I,,1,,,,,,,
,,,,,,,,,,1,,2023-09-27_15h43.44.346,Motor_Task,2023.2.2,Linux x86_64,30.00210015,108.5152,109.1141,1,1,0.5737,,15,5,155,5,1,6,I,,1,,,,,,,
,,,,,,,,,,1,,2023-09-27_15h43.44.346,Motor_Task,2023.2.2,Linux x86_64,30.00210015,109.115,109.6797,3,1,0.5516,,15,6,156,6,1,7,R,,3,,,,,,,
,,,,,,,,,,1,,2023-09-27_15h43.44.346,Motor_Task,2023.2.2,Linux x86_64,30.00210015,109.6801,110.2159,2,1,0.515,,15,7,157,7,1,8,M,,2,,,,,,,
,,,,,,,,,,1,,2023-09-27_15h43.44.346,Motor_Task,2023.2.2,Linux x86_64,30.00210015,110.2169,110.7806,4,1,0.5443,,15,8,158,8,1,9,L,,4,,,,,,,
,,,,,,,,,,1,,2023-09-27_15h43.44.346,Motor_Task,2023.2.2,Linux x86_64,30.00210015,110.7815,111.4472,1,1,0.643,,15,9,159,9,1,10,I,,1,,,,,,,
,,,,,,,,,,1,,2023-09-27_15h43.44.346,Motor_Task,2023.2.2,Linux x86_64,30.00210015,111.4482,111.9806,2,1,0.5076,,16,0,160,0,1,1,M,,2,,,,,,,
,,,,,,,,,,1,,2023-09-27_15h43.44.346,Motor_Task,2023.2.2,Linux x86_64,30.00210015,111.9816,112.4805,3,1,0.4784,,16,1,161,1,1,2,R,,3,,,,,,,
,,,,,,,,,,1,,2023-09-27_15h43.44.346,Motor_Task,2023.2.2,Linux x86_64,30.00210015,112.4815,112.9805,2,1,0.4893,,16,2,162,2,1,3,M,,2,,,,,,,
,,,,,,,,,,1,,2023-09-27_15h43.44.346,Motor_Task,2023.2.2,Linux x86_64,30.00210015,112.9817,113.514,3,1,0.5196,,16,3,163,3,1,4,R,,3,,,,,,,
,,,,,,,,,,1,,2023-09-27_15h43.44.346,Motor_Task,2023.2.2,Linux x86_64,30.00210015,113.5149,114.1472,1,1,0.6184,,16,4,164,4,1,5,I,,1,,,,,,,
,,,,,,,,,,1,,2023-09-27_15h43.44.346,Motor_Task,2023.2.2,Linux x86_64,30.00210015,114.1483,114.7148,1,1,0.5649,,16,5,165,5,1,6,I,,1,,,,,,,
,,,,,,,,,,1,,2023-09-27_15h43.44.346,Motor_Task,2023.2.2,Linux x86_64,30.00210015,114.7157,115.3469,3,1,0.6265,,16,6,166,6,1,7,R,,3,,,,,,,
,,,,,,,,,,1,,2023-09-27_15h43.44.346,Motor_Task,2023.2.2,Linux x86_64,30.00210015,115.3481,115.8806,2,1,0.5114,,16,7,167,7,1,8,M,,2,,,,,,,
,,,,,,,,,,1,,2023-09-27_15h43.44.346,Motor_Task,2023.2.2,Linux x86_64,30.00210015,115.8815,116.4471,4,1,0.5408,,16,8,168,8,1,9,L,,4,,,,,,,
,,,,,,,,,,1,,2023-09-27_15h43.44.346,Motor_Task,2023.2.2,Linux x86_64,30.00210015,116.4482,117.1473,1,1,0.6743,,16,9,169,9,1,10,I,,1,,,,,,,
,,,,,,,,,,1,,2023-09-27_15h43.44.346,Motor_Task,2023.2.2,Linux x86_64,30.00210015,117.1483,117.647,2,1,0.4897,,17,0,170,0,1,1,M,,2,,,,,,,
,,,,,,,,,,1,,2023-09-27_15h43.44.346,Motor_Task,2023.2.2,Linux x86_64,30.00210015,117.648,118.1473,3,1,0.4851,,17,1,171,1,1,2,R,,3,,,,,,,
,,,,,,,,,,1,,2023-09-27_15h43.44.346,Motor_Task,2023.2.2,Linux x86_64,30.00210015,118.1483,118.6468,2,1,0.4964,,17,2,172,2,1,3,M,,2,,,,,,,
,,,,,,,,,,1,,2023-09-27_15h43.44.346,Motor_Task,2023.2.2,Linux x86_64,30.00210015,118.6478,119.081,3,1,0.4321,,17,3,173,3,1,4,R,,3,,,,,,,
,,,,,,,,,,1,,2023-09-27_15h43.44.346,Motor_Task,2023.2.2,Linux x86_64,30.00210015,119.0825,119.7471,1,1,0.643,,17,4,174,4,1,5,I,,1,,,,,,,
,,,,,,,,,,1,,2023-09-27_15h43.44.346,Motor_Task,2023.2.2,Linux x86_64,30.00210015,119.7481,120.3137,1,1,0.5418,,17,5,175,5,1,6,I,,1,,,,,,,
,,,,,,,,,,1,,2023-09-27_15h43.44.346,Motor_Task,2023.2.2,Linux x86_64,30.00210015,120.3148,120.9472,3,1,0.613,,17,6,176,6,1,7,R,,3,,,,,,,
,,,,,,,,,,1,,2023-09-27_15h43.44.346,Motor_Task,2023.2.2,Linux x86_64,30.00210015,120.9483,121.4808,2,1,0.5101,,17,7,177,7,1,8,M,,2,,,,,,,
,,,,,,,,,,1,,2023-09-27_15h43.44.346,Motor_Task,2023.2.2,Linux x86_64,30.00210015,121.4817,122.1138,4,1,0.6108,,17,8,178,8,1,9,L,,4,,,,,,,
,,,,,,,,,,1,,2023-09-27_15h43.44.346,Motor_Task,2023.2.2,Linux x86_64,30.00210015,122.1148,122.6806,1,1,0.5426,,17,9,179,9,1,10,I,,1,,,,,,,
,,,,,,,,,,1,,2023-09-27_15h43.44.346,Motor_Task,2023.2.2,Linux x86_64,30.00210015,122.6819,123.2139,2,1,0.5234,,18,0,180,0,1,1,M,,2,,,,,,,
,,,,,,,,,,1,,2023-09-27_15h43.44.346,Motor_Task,2023.2.2,Linux x86_64,30.00210015,123.2153,123.7469,3,1,0.5285,,18,1,181,1,1,2,R,,3,,,,,,,
,,,,,,,,,,1,,2023-09-27_15h43.44.346,Motor_Task,2023.2.2,Linux x86_64,30.00210015,123.7478,124.2139,2,1,0.459,,18,2,182,2,1,3,M,,2,,,,,,,
,,,,,,,,,,1,,2023-09-27_15h43.44.346,Motor_Task,2023.2.2,Linux x86_64,30.00210015,124.2148,124.647,3,1,0.4177,,18,3,183,3,1,4,R,,3,,,,,,,
,,,,,,,,,,1,,2023-09-27_15h43.44.346,Motor_Task,2023.2.2,Linux x86_64,30.00210015,124.6479,125.2805,1,1,0.6087,,18,4,184,4,1,5,I,,1,,,,,,,
,,,,,,,,,,1,,2023-09-27_15h43.44.346,Motor_Task,2023.2.2,Linux x86_64,30.00210015,125.2814,125.9472,1,1,0.6646,,18,5,185,5,1,6,I,,1,,,,,,,
,,,,,,,,,,1,,2023-09-27_15h43.44.346,Motor_Task,2023.2.2,Linux x86_64,30.00210015,125.9482,126.5805,3,1,0.6078,,18,6,186,6,1,7,R,,3,,,,,,,
,,,,,,,,,,1,,2023-09-27_15h43.44.346,Motor_Task,2023.2.2,Linux x86_64,30.00210015,126.5816,127.0804,1,0,0.4741,,18,7,187,7,1,8,M,,2,,,,,,,
,,,,,,,,,,1,,2023-09-27_15h43.44.346,Motor_Task,2023.2.2,Linux x86_64,30.00210015,127.0818,128.1138,4,1,1.0075,,18,8,188,8,1,9,L,,4,,,,,,,
,,,,,,,,,,1,,2023-09-27_15h43.44.346,Motor_Task,2023.2.2,Linux x86_64,30.00210015,128.1147,128.6471,1,1,0.5246,,18,9,189,9,1,10,I,,1,,,,,,,
,,,,,,,,,,1,,2023-09-27_15h43.44.346,Motor_Task,2023.2.2,Linux x86_64,30.00210015,128.6482,129.247,2,1,0.5808,,19,0,190,0,1,1,M,,2,,,,,,,
,,,,,,,,,,1,,2023-09-27_15h43.44.346,Motor_Task,2023.2.2,Linux x86_64,30.00210015,129.2481,129.78,3,1,0.5103,,19,1,191,1,1,2,R,,3,,,,,,,
,,,,,,,,,,1,,2023-09-27_15h43.44.346,Motor_Task,2023.2.2,Linux x86_64,30.00210015,129.781,130.3137,2,1,0.5195,,19,2,192,2,1,3,M,,2,,,,,,,
,,,,,,,,,,1,,2023-09-27_15h43.44.346,Motor_Task,2023.2.2,Linux x86_64,30.00210015,130.3156,130.9469,3,1,0.611,,19,3,193,3,1,4,R,,3,,,,,,,
,,,,,,,,,,1,,2023-09-27_15h43.44.346,Motor_Task,2023.2.2,Linux x86_64,30.00210015,130.9479,131.4803,1,1,0.5173,,19,4,194,4,1,5,I,,1,,,,,,,
,,,,,,,,,,1,,2023-09-27_15h43.44.346,Motor_Task,2023.2.2,Linux x86_64,30.00210015,131.4813,132.0804,1,1,0.5858,,19,5,195,5,1,6,I,,1,,,,,,,
,,,,,,,,,,1,,2023-09-27_15h43.44.346,Motor_Task,2023.2.2,Linux x86_64,30.00210015,132.0815,132.8134,4,0,0.7122,,19,6,196,6,1,7,R,,3,,,,,,,
,,,,,,,,,,1,,2023-09-27_15h43.44.346,Motor_Task,2023.2.2,Linux x86_64,30.00210015,132.8144,133.4135,2,1,0.574,,19,7,197,7,1,8,M,,2,,,,,,,
,,,,,,,,,,1,,2023-09-27_15h43.44.346,Motor_Task,2023.2.2,Linux x86_64,30.00210015,133.4146,133.8801,3,0,0.4542,,19,8,198,8,1,9,L,,4,,,,,,,
,,,,,,,,,,1,,2023-09-27_15h43.44.346,Motor_Task,2023.2.2,Linux x86_64,30.00210015,133.8813,134.7137,1,1,0.8196,,19,9,199,9,1,10,I,,1,,,,,,,
,,,,,,,,,,1,,2023-09-27_15h43.44.346,Motor_Task,2023.2.2,Linux x86_64,30.00210015,134.7428,135.3134,2,1,0.5664,,,,,,,3,M,,2,0,0,0,2,1,,
,,,,,,,,,,1,,2023-09-27_15h43.44.346,Motor_Task,2023.2.2,Linux x86_64,30.00210015,135.3149,135.8467,4,1,0.5066,,,,,,,9,L,,4,0,1,1,8,1,,
,,,,,,,,,,1,,2023-09-27_15h43.44.346,Motor_Task,2023.2.2,Linux x86_64,30.00210015,135.8479,136.4802,1,1,0.6269,,,,,,,5,I,,1,0,2,2,4,1,,
,,,,,,,,,,1,,2023-09-27_15h43.44.346,Motor_Task,2023.2.2,Linux x86_64,30.00210015,136.4812,137.147,3,1,0.6447,,,,,,,4,R,,3,0,3,3,3,1,,
,,,,,,,,,,1,,2023-09-27_15h43.44.346,Motor_Task,2023.2.2,Linux x86_64,30.00210015,137.148,137.9801,3,1,0.8071,,,,,,,2,R,,3,0,4,4,1,1,,
,,,,,,,,,,1,,2023-09-27_15h43.44.346,Motor_Task,2023.2.2,Linux x86_64,30.00210015,137.9811,138.8465,1,1,0.8612,,,,,,,6,I,,1,0,5,5,5,1,,
,,,,,,,,,,1,,2023-09-27_15h43.44.346,Motor_Task,2023.2.2,Linux x86_64,30.00210015,138.8475,139.4469,1,1,0.5769,,,,,,,10,I,,1,0,6,6,9,1,,
,,,,,,,,,,1,,2023-09-27_15h43.44.346,Motor_Task,2023.2.2,Linux x86_64,30.00210015,139.4479,140.0499,2,1,0.5751,,,,,,,8,M,,2,0,7,7,7,1,,
,,,,,,,,,,1,,2023-09-27_15h43.44.346,Motor_Task,2023.2.2,Linux x86_64,30.00210015,140.051,140.8133,3,1,0.7503,,,,,,,7,R,,3,0,8,8,6,1,,
,,,,,,,,,,1,,2023-09-27_15h43.44.346,Motor_Task,2023.2.2,Linux x86_64,30.00210015,140.8142,141.5133,2,1,0.6776,,,,,,,1,M,,2,0,9,9,0,1,,
,,,,,,,,,,1,,2023-09-27_15h43.44.346,Motor_Task,2023.2.2,Linux x86_64,30.00210015,141.5144,142.0801,4,0,0.5416,,,,,,,7,R,,3,1,0,10,6,1,,
,,,,,,,,,,1,,2023-09-27_15h43.44.346,Motor_Task,2023.2.2,Linux x86_64,30.00210015,142.0811,142.8802,1,1,0.7735,,,,,,,5,I,,1,1,1,11,4,1,,
,,,,,,,,,,1,,2023-09-27_15h43.44.346,Motor_Task,2023.2.2,Linux x86_64,30.00210015,142.8813,143.5135,1,1,0.6075,,,,,,,10,I,,1,1,2,12,9,1,,
,,,,,,,,,,1,,2023-09-27_15h43.44.346,Motor_Task,2023.2.2,Linux x86_64,30.00210015,143.5146,144.2133,3,1,0.6884,,,,,,,2,R,,3,1,3,13,1,1,,
,,,,,,,,,,1,,2023-09-27_15h43.44.346,Motor_Task,2023.2.2,Linux x86_64,30.00210015,144.2144,144.8468,2,1,0.6072,,,,,,,8,M,,2,1,4,14,7,1,,
,,,,,,,,,,1,,2023-09-27_15h43.44.346,Motor_Task,2023.2.2,Linux x86_64,30.00210015,144.8481,145.4466,2,1,0.578,,,,,,,1,M,,2,1,5,15,0,1,,
,,,,,,,,,,1,,2023-09-27_15h43.44.346,Motor_Task,2023.2.2,Linux x86_64,30.00210015,145.4477,146.0132,3,1,0.5638,,,,,,,4,R,,3,1,6,16,3,1,,
,,,,,,,,,,1,,2023-09-27_15h43.44.346,Motor_Task,2023.2.2,Linux x86_64,30.00210015,146.0142,146.5798,2,1,0.5621,,,,,,,3,M,,2,1,7,17,2,1,,
,,,,,,,,,,1,,2023-09-27_15h43.44.346,Motor_Task,2023.2.2,Linux x86_64,30.00210015,146.5809,147.2132,1,1,0.6201,,,,,,,6,I,,1,1,8,18,5,1,,
,,,,,,,,,,1,,2023-09-27_15h43.44.346,Motor_Task,2023.2.2,Linux x86_64,30.00210015,147.2167,147.88,4,1,0.6549,,,,,,,9,L,,4,1,9,19,8,1,,
,,,,,,,,,,1,,2023-09-27_15h43.44.346,Motor_Task,2023.2.2,Linux x86_64,30.00210015,147.881,148.4801,1,1,0.5742,,,,,,,10,I,,1,2,0,20,9,1,,
,,,,,,,,,,1,,2023-09-27_15h43.44.346,Motor_Task,2023.2.2,Linux x86_64,30.00210015,148.4811,149.1132,1,1,0.6179,,,,,,,5,I,,1,2,1,21,4,1,,
,,,,,,,,,,1,,2023-09-27_15h43.44.346,Motor_Task,2023.2.2,Linux x86_64,30.00210015,149.1142,149.7465,3,1,0.626,,,,,,,2,R,,3,2,2,22,1,1,,
,,,,,,,,,,1,,2023-09-27_15h43.44.346,Motor_Task,2023.2.2,Linux x86_64,30.00210015,149.7474,150.2799,2,1,0.5075,,,,,,,1,M,,2,2,3,23,0,1,,
,,,,,,,,,,1,,2023-09-27_15h43.44.346,Motor_Task,2023.2.2,Linux x86_64,30.00210015,150.2809,150.7134,3,0,0.4099,,,,,,,3,M,,2,2,4,24,2,1,,
,,,,,,,,,,1,,2023-09-27_15h43.44.346,Motor_Task,2023.2.2,Linux x86_64,30.00210015,150.7146,151.5469,4,1,0.8169,,,,,,,9,L,,4,2,5,25,8,1,,
,,,,,,,,,,1,,2023-09-27_15h43.44.346,Motor_Task,2023.2.2,Linux x86_64,30.00210015,151.5479,152.5124,3,1,0.9451,,,,,,,7,R,,3,2,6,26,6,1,,
,,,,,,,,,,1,,2023-09-27_15h43.44.346,Motor_Task,2023.2.2,Linux x86_64,30.00210015,152.5128,153.1465,2,1,0.6081,,,,,,,8,M,,2,2,7,27,7,1,,
,,,,,,,,,,1,,2023-09-27_15h43.44.346,Motor_Task,2023.2.2,Linux x86_64,30.00210015,153.1475,153.68,1,1,0.5211,,,,,,,6,I,,1,2,8,28,5,1,,
,,,,,,,,,,1,,2023-09-27_15h43.44.346,Motor_Task,2023.2.2,Linux x86_64,30.00210015,153.6808,154.2797,3,1,0.5732,,,,,,,4,R,,3,2,9,29,3,1,,
,,,,,,,,,,1,,2023-09-27_15h43.44.346,Motor_Task,2023.2.2,Linux x86_64,30.00210015,154.2805,154.7794,1,1,0.4964,,,,,,,5,I,,1,3,0,30,4,1,,
,,,,,,,,,,1,,2023-09-27_15h43.44.346,Motor_Task,2023.2.2,Linux x86_64,30.00210015,154.7804,155.3799,3,1,0.5951,,,,,,,4,R,,3,3,1,31,3,1,,
,,,,,,,,,,1,,2023-09-27_15h43.44.346,Motor_Task,2023.2.2,Linux x86_64,30.00210015,155.3809,155.9456,3,1,0.5438,,,,,,,2,R,,3,3,2,32,1,1,,
,,,,,,,,,,1,,2023-09-27_15h43.44.346,Motor_Task,2023.2.2,Linux x86_64,30.00210015,155.9459,156.5464,1,1,0.5816,,,,,,,10,I,,1,3,3,33,9,1,,
,,,,,,,,,,1,,2023-09-27_15h43.44.346,Motor_Task,2023.2.2,Linux x86_64,30.00210015,156.5473,157.1797,4,1,0.6072,,,,,,,9,L,,4,3,4,34,8,1,,
,,,,,,,,,,1,,2023-09-27_15h43.44.346,Motor_Task,2023.2.2,Linux x86_64,30.00210015,157.1808,157.9463,2,1,0.7508,,,,,,,3,M,,2,3,5,35,2,1,,
,,,,,,,,,,1,,2023-09-27_15h43.44.346,Motor_Task,2023.2.2,Linux x86_64,30.00210015,157.9473,158.5796,3,1,0.6152,,,,,,,7,R,,3,3,6,36,6,1,,
,,,,,,,,,,1,,2023-09-27_15h43.44.346,Motor_Task,2023.2.2,Linux x86_64,30.00210015,158.5806,159.2464,2,1,0.6462,,,,,,,1,M,,2,3,7,37,0,1,,
,,,,,,,,,,1,,2023-09-27_15h43.44.346,Motor_Task,2023.2.2,Linux x86_64,30.00210015,159.2475,160.0132,2,1,0.7433,,,,,,,8,M,,2,3,8,38,7,1,,
,,,,,,,,,,1,,2023-09-27_15h43.44.346,Motor_Task,2023.2.2,Linux x86_64,30.00210015,160.0142,160.6788,1,1,0.6621,,,,,,,6,I,,1,3,9,39,5,1,,
,,,,,,,,,,1,,2023-09-27_15h43.44.346,Motor_Task,2023.2.2,Linux x86_64,30.00210015,160.6791,161.5128,4,1,0.8232,,,,,,,9,L,,4,4,0,40,8,1,,
,,,,,,,,,,1,,2023-09-27_15h43.44.346,Motor_Task,2023.2.2,Linux x86_64,30.00210015,161.5137,163.4125,2,1,1.8948,,,,,,,8,M,,2,4,1,41,7,1,,
,,,,,,,,,,1,,2023-09-27_15h43.44.346,Motor_Task,2023.2.2,Linux x86_64,30.00210015,163.4142,163.9795,3,1,0.5571,,,,,,,4,R,,3,4,2,42,3,1,,
,,,,,,,,,,1,,2023-09-27_15h43.44.346,Motor_Task,2023.2.2,Linux x86_64,30.00210015,163.9805,164.6464,1,1,0.6513,,,,,,,5,I,,1,4,3,43,4,1,,
,,,,,,,,,,1,,2023-09-27_15h43.44.346,Motor_Task,2023.2.2,Linux x86_64,30.00210015,164.6477,165.2139,2,1,0.5645,,,,,,,1,M,,2,4,4,44,0,1,,
,,,,,,,,,,1,,2023-09-27_15h43.44.346,Motor_Task,2023.2.2,Linux x86_64,30.00210015,165.2147,165.9128,1,1,0.6724,,,,,,,6,I,,1,4,5,45,5,1,,
,,,,,,,,,,1,,2023-09-27_15h43.44.346,Motor_Task,2023.2.2,Linux x86_64,30.00210015,165.9138,166.5795,1,1,0.64,,,,,,,10,I,,1,4,6,46,9,1,,
,,,,,,,,,,1,,2023-09-27_15h43.44.346,Motor_Task,2023.2.2,Linux x86_64,30.00210015,166.5807,167.2464,3,1,0.6488,,,,,,,7,R,,3,4,7,47,6,1,,
,,,,,,,,,,1,,2023-09-27_15h43.44.346,Motor_Task,2023.2.2,Linux x86_64,30.00210015,167.2474,167.913,2,1,0.6568,,,,,,,3,M,,2,4,8,48,2,1,,
,,,,,,,,,,1,,2023-09-27_15h43.44.346,Motor_Task,2023.2.2,Linux x86_64,30.00210015,167.914,168.7797,3,1,0.8605,,,,,,,2,R,,3,4,9,49,1,1,,
,,,,,,,,,,1,,2023-09-27_15h43.44.346,Motor_Task,2023.2.2,Linux x86_64,30.00210015,,,,,,,,,,,,,,,,,,,,,168.781,172.78