Trigger.started,Trigger.stopped,key_resp_4.keys,mouse.x,mouse.y,mouse.leftButton,mouse.midButton,mouse.rightButton,Session,Subject,date,expName,psychopyVersion,OS,frameRate,complex_block.started,complex_block.stopped,key_resp.keys,key_resp.corr,key_resp.rt,key_resp.duration,complex_block_loop.thisRepN,complex_block_loop.thisTrialN,complex_block_loop.thisN,complex_block_loop.thisIndex,complex_block_loop.ran,trial,finger,markerPos,correctResp,new_block_loop.thisRepN,new_block_loop.thisTrialN,new_block_loop.thisN,new_block_loop.thisIndex,new_block_loop.ran,endBuffer.started,endBuffer.stopped
0,21.42,,-0.214444444,0.042222222,1,0,0,1,,2023-09-27_15h43.42.742,Motor_Task,2023.2.2,MacIntel,60.09615385,,,,,,,,,,,,,,,,,,,,,,
,,,,,,,,1,,2023-09-27_15h43.42.742,Motor_Task,2023.2.2,MacIntel,60.09615385,21.435,22.937,2,1,1.501,,0,0,0,0,1,1,M,,2,,,,,,,
,,,,,,,,1,,2023-09-27_15h43.42.742,Motor_Task,2023.2.2,MacIntel,60.09615385,22.937,23.603,3,1,0.654,,0,1,1,1,1,2,R,,3,,,,,,,
,,,,,,,,1,,2023-09-27_15h43.42.742,Motor_Task,2023.2.2,MacIntel,60.09615385,23.604,24.269,2,1,0.661,,0,2,2,2,1,3,M,,2,,,,,,,
,,,,,,,,1,,2023-09-27_15h43.42.742,Motor_Task,2023.2.2,MacIntel,60.09615385,24.27,25.186,3,1,0.906,,0,3,3,3,1,4,R,,3,,,,,,,
,,,,,,,,1,,2023-09-27_15h43.42.742,Motor_Task,2023.2.2,MacIntel,60.09615385,25.188,25.821,1,1,0.628,,0,4,4,4,1,5,I,,1,,,,,,,
,,,,,,,,1,,2023-09-27_15h43.42.742,Motor_Task,2023.2.2,MacIntel,60.09615385,25.822,26.536,1,1,0.709,,0,5,5,5,1,6,I,,1,,,,,,,
,,,,,,,,1,,2023-09-27_15h43.42.742,Motor_Task,2023.2.2,MacIntel,60.09615385,26.536,27.203,3,1,0.656,,0,6,6,6,1,7,R,,3,,,,,,,
,,,,,,,,1,,2023-09-27_15h43.42.742,Motor_Task,2023.2.2,MacIntel,60.09615385,27.204,27.886,2,1,0.668,,0,7,7,7,1,8,M,,2,,,,,,,
,,,,,,,,1,,2023-09-27_15h43.42.742,Motor_Task,2023.2.2,MacIntel,60.09615385,27.886,28.654,4,1,0.761,,0,8,8,8,1,9,L,,4,,,,,,,
,,,,,,,,1,,2023-09-27_15h43.42.742,Motor_Task,2023.2.2,MacIntel,60.09615385,28.655,29.253,1,1,0.592,,0,9,9,9,1,10,I,,1,,,,,,,
,,,,,,,,1,,2023-09-27_15h43.42.742,Motor_Task,2023.2.2,MacIntel,60.09615385,29.254,29.803,2,1,0.545,,1,0,10,0,1,1,M,,2,,,,,,,
,,,,,,,,1,,2023-09-27_15h43.42.742,Motor_Task,2023.2.2,MacIntel,60.09615385,29.803,30.337,3,1,0.523,,1,1,11,1,1,2,R,,3,,,,,,,
,,,,,,,,1,,2023-09-27_15h43.42.742,Motor_Task,2023.2.2,MacIntel,60.09615385,30.337,31.02,2,1,0.672,,1,2,12,2,1,3,M,,2,,,,,,,
,,,,,,,,1,,2023-09-27_15h43.42.742,Motor_Task,2023.2.2,MacIntel,60.09615385,31.02,31.654,3,1,0.622,,1,3,13,3,1,4,R,,3,,,,,,,
,,,,,,,,1,,2023-09-27_15h43.42.742,Motor_Task,2023.2.2,MacIntel,60.09615385,31.655,32.17,1,1,0.51,,1,4,14,4,1,5,I,,1,,,,,,,
,,,,,,,,1,,2023-09-27_15h43.42.742,Motor_Task,2023.2.2,MacIntel,60.09615385,32.171,32.737,1,1,0.555,,1,5,15,5,1,6,I,,1,,,,,,,
,,,,,,,,1,,2023-09-27_15h43.42.742,Motor_Task,2023.2.2,MacIntel,60.09615385,32.738,33.254,3,1,0.506,,1,6,16,6,1,7,R,,3,,,,,,,
,,,,,,,,1,,2023-09-27_15h43.42.742,Motor_Task,2023.2.2,MacIntel,60.09615385,33.255,33.754,2,1,0.486,,1,7,17,7,1,8,M,,2,,,,,,,
,,,,,,,,1,,2023-09-27_15h43.42.742,Motor_Task,2023.2.2,MacIntel,60.09615385,33.755,34.453,4,1,0.686,,1,8,18,8,1,9,L,,4,,,,,,,
,,,,,,,,1,,2023-09-27_15h43.42.742,Motor_Task,2023.2.2,MacIntel,60.09615385,34.454,34.937,1,1,0.471,,1,9,19,9,1,10,I,,1,,,,,,,
,,,,,,,,1,,2023-09-27_15h43.42.742,Motor_Task,2023.2.2,MacIntel,60.09615385,34.938,35.47,2,1,0.525,,2,0,20,0,1,1,M,,2,,,,,,,
,,,,,,,,1,,2023-09-27_15h43.42.742,Motor_Task,2023.2.2,MacIntel,60.09615385,35.471,35.954,3,1,0.473,,2,1,21,1,1,2,R,,3,,,,,,,
,,,,,,,,1,,2023-09-27_15h43.42.742,Motor_Task,2023.2.2,MacIntel,60.09615385,35.955,36.537,2,1,0.568,,2,2,22,2,1,3,M,,2,,,,,,,
,,,,,,,,1,,2023-09-27_15h43.42.742,Motor_Task,2023.2.2,MacIntel,60.09615385,36.537,37.136,3,1,0.588,,2,3,23,3,1,4,R,,3,,,,,,,
,,,,,,,,1,,2023-09-27_15h43.42.742,Motor_Task,2023.2.2,MacIntel,60.09615385,37.138,37.67,1,1,0.523,,2,4,24,4,1,5,I,,1,,,,,,,
,,,,,,,,1,,2023-09-27_15h43.42.742,Motor_Task,2023.2.2,MacIntel,60.09615385,37.67,38.271,1,1,0.594,,2,5,25,5,1,6,I,,1,,,,,,,
,,,,,,,,1,,2023-09-27_15h43.42.742,Motor_Task,2023.2.2,MacIntel,60.09615385,38.273,38.904,3,1,0.62,,2,6,26,6,1,7,R,,3,,,,,,,
,,,,,,,,1,,2023-09-27_15h43.42.742,Motor_Task,2023.2.2,MacIntel,60.09615385,38.904,39.37,2,1,0.457,,2,7,27,7,1,8,M,,2,,,,,,,
,,,,,,,,1,,2023-09-27_15h43.42.742,Motor_Task,2023.2.2,MacIntel,60.09615385,39.371,39.903,3,0,0.529,,2,8,28,8,1,9,L,,4,,,,,,,
,,,,,,,,1,,2023-09-27_15h43.42.742,Motor_Task,2023.2.2,MacIntel,60.09615385,39.904,40.819,1,1,0.906,,2,9,29,9,1,10,I,,1,,,,,,,
,,,,,,,,1,,2023-09-27_15h43.42.742,Motor_Task,2023.2.2,MacIntel,60.09615385,40.821,41.604,2,1,0.773,,3,0,30,0,1,1,M,,2,,,,,,,
,,,,,,,,1,,2023-09-27_15h43.42.742,Motor_Task,2023.2.2,MacIntel,60.09615385,41.605,42.12,3,1,0.511,,3,1,31,1,1,2,R,,3,,,,,,,
,,,,,,,,1,,2023-09-27_15h43.42.742,Motor_Task,2023.2.2,MacIntel,60.09615385,42.121,42.92,2,1,0.79,,3,2,32,2,1,3,M,,2,,,,,,,
,,,,,,,,1,,2023-09-27_15h43.42.742,Motor_Task,2023.2.2,MacIntel,60.09615385,42.921,43.503,3,1,0.573,,3,3,33,3,1,4,R,,3,,,,,,,
,,,,,,,,1,,2023-09-27_15h43.42.742,Motor_Task,2023.2.2,MacIntel,60.09615385,43.504,44.036,1,1,0.522,,3,4,34,4,1,5,I,,1,,,,,,,
,,,,,,,,1,,2023-09-27_15h43.42.742,Motor_Task,2023.2.2,MacIntel,60.09615385,44.037,44.754,1,1,0.709,,3,5,35,5,1,6,I,,1,,,,,,,
,,,,,,,,1,,2023-09-27_15h43.42.742,Motor_Task,2023.2.2,MacIntel,60.09615385,44.755,45.454,3,1,0.686,,3,6,36,6,1,7,R,,3,,,,,,,
,,,,,,,,1,,2023-09-27_15h43.42.742,Motor_Task,2023.2.2,MacIntel,60.09615385,45.456,46.086,2,1,0.619,,3,7,37,7,1,8,M,,2,,,,,,,
,,,,,,,,1,,2023-09-27_15h43.42.742,Motor_Task,2023.2.2,MacIntel,60.09615385,46.088,46.921,4,1,0.821,,3,8,38,8,1,9,L,,4,,,,,,,
,,,,,,,,1,,2023-09-27_15h43.42.742,Motor_Task,2023.2.2,MacIntel,60.09615385,46.921,47.503,1,1,0.574,,3,9,39,9,1,10,I,,1,,,,,,,
,,,,,,,,1,,2023-09-27_15h43.42.742,Motor_Task,2023.2.2,MacIntel,60.09615385,47.504,48.287,2,1,0.771,,4,0,40,0,1,1,M,,2,,,,,,,
,,,,,,,,1,,2023-09-27_15h43.42.742,Motor_Task,2023.2.2,MacIntel,60.09615385,48.287,48.936,3,1,0.637,,4,1,41,1,1,2,R,,3,,,,,,,
,,,,,,,,1,,2023-09-27_15h43.42.742,Motor_Task,2023.2.2,MacIntel,60.09615385,48.936,49.753,2,1,0.807,,4,2,42,2,1,3,M,,2,,,,,,,
,,,,,,,,1,,2023-09-27_15h43.42.742,Motor_Task,2023.2.2,MacIntel,60.09615385,49.755,50.487,3,1,0.722,,4,3,43,3,1,4,R,,3,,,,,,,
,,,,,,,,1,,2023-09-27_15h43.42.742,Motor_Task,2023.2.2,MacIntel,60.09615385,50.487,51.087,1,1,0.589,,4,4,44,4,1,5,I,,1,,,,,,,
,,,,,,,,1,,2023-09-27_15h43.42.742,Motor_Task,2023.2.2,MacIntel,60.09615385,51.087,51.653,1,1,0.562,,4,5,45,5,1,6,I,,1,,,,,,,
,,,,,,,,1,,2023-09-27_15h43.42.742,Motor_Task,2023.2.2,MacIntel,60.09615385,51.654,52.269,3,1,0.606,,4,6,46,6,1,7,R,,3,,,,,,,
,,,,,,,,1,,2023-09-27_15h43.42.742,Motor_Task,2023.2.2,MacIntel,60.09615385,52.27,52.82,2,1,0.544,,4,7,47,7,1,8,M,,2,,,,,,,
,,,,,,,,1,,2023-09-27_15h43.42.742,Motor_Task,2023.2.2,MacIntel,60.09615385,52.821,53.522,4,1,0.692,,4,8,48,8,1,9,L,,4,,,,,,,
,,,,,,,,1,,2023-09-27_15h43.42.742,Motor_Task,2023.2.2,MacIntel,60.09615385,53.526,54.02,1,1,0.491,,4,9,49,9,1,10,I,,1,,,,,,,
,,,,,,,,1,,2023-09-27_15h43.42.742,Motor_Task,2023.2.2,MacIntel,60.09615385,54.021,54.521,2,1,0.496,,5,0,50,0,1,1,M,,2,,,,,,,
,,,,,,,,1,,2023-09-27_15h43.42.742,Motor_Task,2023.2.2,MacIntel,60.09615385,54.521,55.021,3,1,0.496,,5,1,51,1,1,2,R,,3,,,,,,,
,,,,,,,,1,,2023-09-27_15h43.42.742,Motor_Task,2023.2.2,MacIntel,60.09615385,55.021,55.587,2,1,0.556,,5,2,52,2,1,3,M,,2,,,,,,,
,,,,,,,,1,,2023-09-27_15h43.42.742,Motor_Task,2023.2.2,MacIntel,60.09615385,55.588,56.204,3,1,0.606,,5,3,53,3,1,4,R,,3,,,,,,,
,,,,,,,,1,,2023-09-27_15h43.42.742,Motor_Task,2023.2.2,MacIntel,60.09615385,56.205,56.804,1,1,0.587,,5,4,54,4,1,5,I,,1,,,,,,,
,,,,,,,,1,,2023-09-27_15h43.42.742,Motor_Task,2023.2.2,MacIntel,60.09615385,56.804,57.387,1,1,0.57,,5,5,55,5,1,6,I,,1,,,,,,,
,,,,,,,,1,,2023-09-27_15h43.42.742,Motor_Task,2023.2.2,MacIntel,60.09615385,57.388,57.97,3,1,0.576,,5,6,56,6,1,7,R,,3,,,,,,,
,,,,,,,,1,,2023-09-27_15h43.42.742,Motor_Task,2023.2.2,MacIntel,60.09615385,57.971,58.587,2,1,0.611,,5,7,57,7,1,8,M,,2,,,,,,,
,,,,,,,,1,,2023-09-27_15h43.42.742,Motor_Task,2023.2.2,MacIntel,60.09615385,58.588,59.27,4,1,0.677,,5,8,58,8,1,9,L,,4,,,,,,,
,,,,,,,,1,,2023-09-27_15h43.42.742,Motor_Task,2023.2.2,MacIntel,60.09615385,59.271,59.753,1,1,0.476,,5,9,59,9,1,10,I,,1,,,,,,,
,,,,,,,,1,,2023-09-27_15h43.42.742,Motor_Task,2023.2.2,MacIntel,60.09615385,59.754,60.254,2,1,0.49,,6,0,60,0,1,1,M,,2,,,,,,,
,,,,,,,,1,,2023-09-27_15h43.42.742,Motor_Task,2023.2.2,MacIntel,60.09615385,60.255,60.72,3,1,0.455,,6,1,61,1,1,2,R,,3,,,,,,,
,,,,,,,,1,,2023-09-27_15h43.42.742,Motor_Task,2023.2.2,MacIntel,60.09615385,60.721,61.32,2,1,0.589,,6,2,62,2,1,3,M,,2,,,,,,,
,,,,,,,,1,,2023-09-27_15h43.42.742,Motor_Task,2023.2.2,MacIntel,60.09615385,61.321,61.787,3,1,0.46,,6,3,63,3,1,4,R,,3,,,,,,,
,,,,,,,,1,,2023-09-27_15h43.42.742,Motor_Task,2023.2.2,MacIntel,60.09615385,61.789,62.304,1,1,0.508,,6,4,64,4,1,5,I,,1,,,,,,,
,,,,,,,,1,,2023-09-27_15h43.42.742,Motor_Task,2023.2.2,MacIntel,60.09615385,62.305,62.854,1,1,0.535,,6,5,65,5,1,6,I,,1,,,,,,,
,,,,,,,,1,,2023-09-27_15h43.42.742,Motor_Task,2023.2.2,MacIntel,60.09615385,62.855,63.354,3,1,0.491,,6,6,66,6,1,7,R,,3,,,,,,,
,,,,,,,,1,,2023-09-27_15h43.42.742,Motor_Task,2023.2.2,MacIntel,60.09615385,63.355,63.971,2,1,0.611,,6,7,67,7,1,8,M,,2,,,,,,,
,,,,,,,,1,,2023-09-27_15h43.42.742,Motor_Task,2023.2.2,MacIntel,60.09615385,63.972,64.571,4,1,0.589,,6,8,68,8,1,9,L,,4,,,,,,,
,,,,,,,,1,,2023-09-27_15h43.42.742,Motor_Task,2023.2.2,MacIntel,60.09615385,64.572,65.154,1,1,0.571,,6,9,69,9,1,10,I,,1,,,,,,,
,,,,,,,,1,,2023-09-27_15h43.42.742,Motor_Task,2023.2.2,MacIntel,60.09615385,65.155,65.604,2,1,0.444,,7,0,70,0,1,1,M,,2,,,,,,,
,,,,,,,,1,,2023-09-27_15h43.42.742,Motor_Task,2023.2.2,MacIntel,60.09615385,65.605,66.137,3,1,0.525,,7,1,71,1,1,2,R,,3,,,,,,,
,,,,,,,,1,,2023-09-27_15h43.42.742,Motor_Task,2023.2.2,MacIntel,60.09615385,66.138,66.738,2,1,0.588,,7,2,72,2,1,3,M,,2,,,,,,,
,,,,,,,,1,,2023-09-27_15h43.42.742,Motor_Task,2023.2.2,MacIntel,60.09615385,66.738,67.406,3,1,0.656,,7,3,73,3,1,4,R,,3,,,,,,,
,,,,,,,,1,,2023-09-27_15h43.42.742,Motor_Task,2023.2.2,MacIntel,60.09615385,67.407,67.954,1,1,0.539,,7,4,74,4,1,5,I,,1,,,,,,,
,,,,,,,,1,,2023-09-27_15h43.42.742,Motor_Task,2023.2.2,MacIntel,60.09615385,67.955,68.638,1,1,0.672,,7,5,75,5,1,6,I,,1,,,,,,,
,,,,,,,,1,,2023-09-27_15h43.42.742,Motor_Task,2023.2.2,MacIntel,60.09615385,68.638,69.171,3,1,0.522,,7,6,76,6,1,7,R,,3,,,,,,,
,,,,,,,,1,,2023-09-27_15h43.42.742,Motor_Task,2023.2.2,MacIntel,60.09615385,69.173,69.67,2,1,0.487,,7,7,77,7,1,8,M,,2,,,,,,,
,,,,,,,,1,,2023-09-27_15h43.42.742,Motor_Task,2023.2.2,MacIntel,60.09615385,69.672,70.27,4,1,0.589,,7,8,78,8,1,9,L,,4,,,,,,,
,,,,,,,,1,,2023-09-27_15h43.42.742,Motor_Task,2023.2.2,MacIntel,60.09615385,70.272,70.754,1,1,0.476,,7,9,79,9,1,10,I,,1,,,,,,,
,,,,,,,,1,,2023-09-27_15h43.42.742,Motor_Task,2023.2.2,MacIntel,60.09615385,70.755,71.237,2,1,0.471,,8,0,80,0,1,1,M,,2,,,,,,,
,,,,,,,,1,,2023-09-27_15h43.42.742,Motor_Task,2023.2.2,MacIntel,60.09615385,71.238,71.787,3,1,0.546,,8,1,81,1,1,2,R,,3,,,,,,,
,,,,,,,,1,,2023-09-27_15h43.42.742,Motor_Task,2023.2.2,MacIntel,60.09615385,71.788,72.353,2,1,0.555,,8,2,82,2,1,3,M,,2,,,,,,,
,,,,,,,,1,,2023-09-27_15h43.42.742,Motor_Task,2023.2.2,MacIntel,60.09615385,72.355,73.02,3,1,0.655,,8,3,83,3,1,4,R,,3,,,,,,,
,,,,,,,,1,,2023-09-27_15h43.42.742,Motor_Task,2023.2.2,MacIntel,60.09615385,73.021,73.537,1,1,0.502,,8,4,84,4,1,5,I,,1,,,,,,,
,,,,,,,,1,,2023-09-27_15h43.42.742,Motor_Task,2023.2.2,MacIntel,60.09615385,73.537,74.338,1,1,0.789,,8,5,85,5,1,6,I,,1,,,,,,,
,,,,,,,,1,,2023-09-27_15h43.42.742,Motor_Task,2023.2.2,MacIntel,60.09615385,74.339,75.054,3,1,0.702,,8,6,86,6,1,7,R,,3,,,,,,,
,,,,,,,,1,,2023-09-27_15h43.42.742,Motor_Task,2023.2.2,MacIntel,60.09615385,75.055,75.604,2,1,0.539,,8,7,87,7,1,8,M,,2,,,,,,,
,,,,,,,,1,,2023-09-27_15h43.42.742,Motor_Task,2023.2.2,MacIntel,60.09615385,75.605,76.237,4,1,0.623,,8,8,88,8,1,9,L,,4,,,,,,,
,,,,,,,,1,,2023-09-27_15h43.42.742,Motor_Task,2023.2.2,MacIntel,60.09615385,76.238,76.754,1,1,0.507,,8,9,89,9,1,10,I,,1,,,,,,,
,,,,,,,,1,,2023-09-27_15h43.42.742,Motor_Task,2023.2.2,MacIntel,60.09615385,76.756,77.288,2,1,0.523,,9,0,90,0,1,1,M,,2,,,,,,,
,,,,,,,,1,,2023-09-27_15h43.42.742,Motor_Task,2023.2.2,MacIntel,60.09615385,77.289,77.787,3,1,0.485,,9,1,91,1,1,2,R,,3,,,,,,,
,,,,,,,,1,,2023-09-27_15h43.42.742,Motor_Task,2023.2.2,MacIntel,60.09615385,77.788,78.554,2,1,0.755,,9,2,92,2,1,3,M,,2,,,,,,,
,,,,,,,,1,,2023-09-27_15h43.42.742,Motor_Task,2023.2.2,MacIntel,60.09615385,78.555,79.204,3,1,0.636,,9,3,93,3,1,4,R,,3,,,,,,,
,,,,,,,,1,,2023-09-27_15h43.42.742,Motor_Task,2023.2.2,MacIntel,60.09615385,79.205,79.721,1,1,0.504,,9,4,94,4,1,5,I,,1,,,,,,,
,,,,,,,,1,,2023-09-27_15h43.42.742,Motor_Task,2023.2.2,MacIntel,60.09615385,79.721,80.253,1,1,0.522,,9,5,95,5,1,6,I,,1,,,,,,,
,,,,,,,,1,,2023-09-27_15h43.42.742,Motor_Task,2023.2.2,MacIntel,60.09615385,80.254,80.753,3,1,0.49,,9,6,96,6,1,7,R,,3,,,,,,,
,,,,,,,,1,,2023-09-27_15h43.42.742,Motor_Task,2023.2.2,MacIntel,60.09615385,80.754,81.337,2,1,0.574,,9,7,97,7,1,8,M,,2,,,,,,,
,,,,,,,,1,,2023-09-27_15h43.42.742,Motor_Task,2023.2.2,MacIntel,60.09615385,81.339,82.054,4,1,0.704,,9,8,98,8,1,9,L,,4,,,,,,,
,,,,,,,,1,,2023-09-27_15h43.42.742,Motor_Task,2023.2.2,MacIntel,60.09615385,82.055,82.538,1,1,0.471,,9,9,99,9,1,10,I,,1,,,,,,,
,,,,,,,,1,,2023-09-27_15h43.42.742,Motor_Task,2023.2.2,MacIntel,60.09615385,82.54,83.054,2,1,0.501,,10,0,100,0,1,1,M,,2,,,,,,,
,,,,,,,,1,,2023-09-27_15h43.42.742,Motor_Task,2023.2.2,MacIntel,60.09615385,83.054,83.521,3,1,0.456,,10,1,101,1,1,2,R,,3,,,,,,,
,,,,,,,,1,,2023-09-27_15h43.42.742,Motor_Task,2023.2.2,MacIntel,60.09615385,83.522,84.12,2,1,0.588,,10,2,102,2,1,3,M,,2,,,,,,,
,,,,,,,,1,,2023-09-27_15h43.42.742,Motor_Task,2023.2.2,MacIntel,60.09615385,84.121,84.77,3,1,0.64,,10,3,103,3,1,4,R,,3,,,,,,,
,,,,,,,,1,,2023-09-27_15h43.42.742,Motor_Task,2023.2.2,MacIntel,60.09615385,84.771,85.27,1,1,0.491,,10,4,104,4,1,5,I,,1,,,,,,,
,,,,,,,,1,,2023-09-27_15h43.42.742,Motor_Task,2023.2.2,MacIntel,60.09615385,85.271,85.804,1,1,0.524,,10,5,105,5,1,6,I,,1,,,,,,,
,,,,,,,,1,,2023-09-27_15h43.42.742,Motor_Task,2023.2.2,MacIntel,60.09615385,85.805,86.338,3,1,0.522,,10,6,106,6,1,7,R,,3,,,,,,,
,,,,,,,,1,,2023-09-27_15h43.42.742,Motor_Task,2023.2.2,MacIntel,60.09615385,86.339,86.84,2,1,0.488,,10,7,107,7,1,8,M,,2,,,,,,,
,,,,,,,,1,,2023-09-27_15h43.42.742,Motor_Task,2023.2.2,MacIntel,60.09615385,86.844,87.421,4,1,0.564,,10,8,108,8,1,9,L,,4,,,,,,,
,,,,,,,,1,,2023-09-27_15h43.42.742,Motor_Task,2023.2.2,MacIntel,60.09615385,87.422,87.92,1,1,0.493,,10,9,109,9,1,10,I,,1,,,,,,,
,,,,,,,,1,,2023-09-27_15h43.42.742,Motor_Task,2023.2.2,MacIntel,60.09615385,87.921,88.437,2,1,0.506,,11,0,110,0,1,1,M,,2,,,,,,,
,,,,,,,,1,,2023-09-27_15h43.42.742,Motor_Task,2023.2.2,MacIntel,60.09615385,88.438,88.887,3,1,0.441,,11,1,111,1,1,2,R,,3,,,,,,,
,,,,,,,,1,,2023-09-27_15h43.42.742,Motor_Task,2023.2.2,MacIntel,60.09615385,88.888,89.421,2,1,0.526,,11,2,112,2,1,3,M,,2,,,,,,,
,,,,,,,,1,,2023-09-27_15h43.42.742,Motor_Task,2023.2.2,MacIntel,60.09615385,89.423,89.937,3,1,0.501,,11,3,113,3,1,4,R,,3,,,,,,,
,,,,,,,,1,,2023-09-27_15h43.42.742,Motor_Task,2023.2.2,MacIntel,60.09615385,89.937,90.505,1,1,0.555,,11,4,114,4,1,5,I,,1,,,,,,,
,,,,,,,,1,,2023-09-27_15h43.42.742,Motor_Task,2023.2.2,MacIntel,60.09615385,90.506,91.138,1,1,0.619,,11,5,115,5,1,6,I,,1,,,,,,,
,,,,,,,,1,,2023-09-27_15h43.42.742,Motor_Task,2023.2.2,MacIntel,60.09615385,91.138,91.588,3,1,0.444,,11,6,116,6,1,7,R,,3,,,,,,,
,,,,,,,,1,,2023-09-27_15h43.42.742,Motor_Task,2023.2.2,MacIntel,60.09615385,91.589,92.071,2,1,0.471,,11,7,117,7,1,8,M,,2,,,,,,,
,,,,,,,,1,,2023-09-27_15h43.42.742,Motor_Task,2023.2.2,MacIntel,60.09615385,92.073,92.638,4,1,0.554,,11,8,118,8,1,9,L,,4,,,,,,,
,,,,,,,,1,,2023-09-27_15h43.42.742,Motor_Task,2023.2.2,MacIntel,60.09615385,92.639,93.221,1,1,0.571,,11,9,119,9,1,10,I,,1,,,,,,,
,,,,,,,,1,,2023-09-27_15h43.42.742,Motor_Task,2023.2.2,MacIntel,60.09615385,93.222,93.704,2,1,0.477,,12,0,120,0,1,1,M,,2,,,,,,,
,,,,,,,,1,,2023-09-27_15h43.42.742,Motor_Task,2023.2.2,MacIntel,60.09615385,93.704,94.138,3,1,0.422,,12,1,121,1,1,2,R,,3,,,,,,,
,,,,,,,,1,,2023-09-27_15h43.42.742,Motor_Task,2023.2.2,MacIntel,60.09615385,94.139,94.638,2,1,0.487,,12,2,122,2,1,3,M,,2,,,,,,,
,,,,,,,,1,,2023-09-27_15h43.42.742,Motor_Task,2023.2.2,MacIntel,60.09615385,94.638,95.121,3,1,0.471,,12,3,123,3,1,4,R,,3,,,,,,,
,,,,,,,,1,,2023-09-27_15h43.42.742,Motor_Task,2023.2.2,MacIntel,60.09615385,95.123,95.654,1,1,0.52,,12,4,124,4,1,5,I,,1,,,,,,,
,,,,,,,,1,,2023-09-27_15h43.42.742,Motor_Task,2023.2.2,MacIntel,60.09615385,95.656,96.205,1,1,0.539,,12,5,125,5,1,6,I,,1,,,,,,,
,,,,,,,,1,,2023-09-27_15h43.42.742,Motor_Task,2023.2.2,MacIntel,60.09615385,96.206,96.705,3,1,0.489,,12,6,126,6,1,7,R,,3,,,,,,,
,,,,,,,,1,,2023-09-27_15h43.42.742,Motor_Task,2023.2.2,MacIntel,60.09615385,96.706,97.172,2,1,0.456,,12,7,127,7,1,8,M,,2,,,,,,,
,,,,,,,,1,,2023-09-27_15h43.42.742,Motor_Task,2023.2.2,MacIntel,60.09615385,97.173,97.787,4,1,0.606,,12,8,128,8,1,9,L,,4,,,,,,,
,,,,,,,,1,,2023-09-27_15h43.42.742,Motor_Task,2023.2.2,MacIntel,60.09615385,97.788,98.254,1,1,0.454,,12,9,129,9,1,10,I,,1,,,,,,,
,,,,,,,,1,,2023-09-27_15h43.42.742,Motor_Task,2023.2.2,MacIntel,60.09615385,98.256,98.755,2,1,0.488,,13,0,130,0,1,1,M,,2,,,,,,,
,,,,,,,,1,,2023-09-27_15h43.42.742,Motor_Task,2023.2.2,MacIntel,60.09615385,98.755,99.209,3,1,0.442,,13,1,131,1,1,2,R,,3,,,,,,,
,,,,,,,,1,,2023-09-27_15h43.42.742,Motor_Task,2023.2.2,MacIntel,60.09615385,99.211,99.671,2,1,0.45,,13,2,132,2,1,3,M,,2,,,,,,,
,,,,,,,,1,,2023-09-27_15h43.42.742,Motor_Task,2023.2.2,MacIntel,60.09615385,99.672,100.188,3,1,0.508,,13,3,133,3,1,4,R,,3,,,,,,,
,,,,,,,,1,,2023-09-27_15h43.42.742,Motor_Task,2023.2.2,MacIntel,60.09615385,100.188,100.704,1,1,0.508,,13,4,134,4,1,5,I,,1,,,,,,,
,,,,,,,,1,,2023-09-27_15h43.42.742,Motor_Task,2023.2.2,MacIntel,60.09615385,100.705,101.288,1,1,0.572,,13,5,135,5,1,6,I,,1,,,,,,,
,,,,,,,,1,,2023-09-27_15h43.42.742,Motor_Task,2023.2.2,MacIntel,60.09615385,101.289,101.821,4,0,0.521,,13,6,136,6,1,7,R,,3,,,,,,,
,,,,,,,,1,,2023-09-27_15h43.42.742,Motor_Task,2023.2.2,MacIntel,60.09615385,101.822,102.671,2,1,0.837,,13,7,137,7,1,8,M,,2,,,,,,,
,,,,,,,,1,,2023-09-27_15h43.42.742,Motor_Task,2023.2.2,MacIntel,60.09615385,102.671,103.371,4,1,0.688,,13,8,138,8,1,9,L,,4,,,,,,,
,,,,,,,,1,,2023-09-27_15h43.42.742,Motor_Task,2023.2.2,MacIntel,60.09615385,103.373,103.904,1,1,0.522,,13,9,139,9,1,10,I,,1,,,,,,,
,,,,,,,,1,,2023-09-27_15h43.42.742,Motor_Task,2023.2.2,MacIntel,60.09615385,103.905,104.455,2,1,0.539,,14,0,140,0,1,1,M,,2,,,,,,,
,,,,,,,,1,,2023-09-27_15h43.42.742,Motor_Task,2023.2.2,MacIntel,60.09615385,104.456,104.971,3,1,0.504,,14,1,141,1,1,2,R,,3,,,,,,,
,,,,,,,,1,,2023-09-27_15h43.42.742,Motor_Task,2023.2.2,MacIntel,60.09615385,104.972,105.57,2,1,0.595,,14,2,142,2,1,3,M,,2,,,,,,,
,,,,,,,,1,,2023-09-27_15h43.42.742,Motor_Task,2023.2.2,MacIntel,60.09615385,105.571,106.072,3,1,0.49,,14,3,143,3,1,4,R,,3,,,,,,,
,,,,,,,,1,,2023-09-27_15h43.42.742,Motor_Task,2023.2.2,MacIntel,60.09615385,106.073,106.587,1,1,0.505,,14,4,144,4,1,5,I,,1,,,,,,,
,,,,,,,,1,,2023-09-27_15h43.42.742,Motor_Task,2023.2.2,MacIntel,60.09615385,106.588,107.155,1,1,0.554,,14,5,145,5,1,6,I,,1,,,,,,,
,,,,,,,,1,,2023-09-27_15h43.42.742,Motor_Task,2023.2.2,MacIntel,60.09615385,107.155,107.654,3,1,0.486,,14,6,146,6,1,7,R,,3,,,,,,,
,,,,,,,,1,,2023-09-27_15h43.42.742,Motor_Task,2023.2.2,MacIntel,60.09615385,107.656,108.271,2,1,0.603,,14,7,147,7,1,8,M,,2,,,,,,,
,,,,,,,,1,,2023-09-27_15h43.42.742,Motor_Task,2023.2.2,MacIntel,60.09615385,108.272,108.921,4,1,0.636,,14,8,148,8,1,9,L,,4,,,,,,,
,,,,,,,,1,,2023-09-27_15h43.42.742,Motor_Task,2023.2.2,MacIntel,60.09615385,108.921,109.522,1,1,0.589,,14,9,149,9,1,10,I,,1,,,,,,,
,,,,,,,,1,,2023-09-27_15h43.42.742,Motor_Task,2023.2.2,MacIntel,60.09615385,109.522,109.987,2,1,0.461,,15,0,150,0,1,1,M,,2,,,,,,,
,,,,,,,,1,,2023-09-27_15h43.42.742,Motor_Task,2023.2.2,MacIntel,60.09615385,109.989,110.521,3,1,0.521,,15,1,151,1,1,2,R,,3,,,,,,,
,,,,,,,,1,,2023-09-27_15h43.42.742,Motor_Task,2023.2.2,MacIntel,60.09615385,110.522,111.121,2,1,0.589,,15,2,152,2,1,3,M,,2,,,,,,,
,,,,,,,,1,,2023-09-27_15h43.42.742,Motor_Task,2023.2.2,MacIntel,60.09615385,111.121,111.738,3,1,0.605,,15,3,153,3,1,4,R,,3,,,,,,,
,,,,,,,,1,,2023-09-27_15h43.42.742,Motor_Task,2023.2.2,MacIntel,60.09615385,111.74,112.255,1,1,0.511,,15,4,154,4,1,5,I,,1,,,,,,,
,,,,,,,,1,,2023-09-27_15h43.42.742,Motor_Task,2023.2.2,MacIntel,60.09615385,112.255,112.821,1,1,0.555,,15,5,155,5,1,6,I,,1,,,,,,,
,,,,,,,,1,,2023-09-27_15h43.42.742,Motor_Task,2023.2.2,MacIntel,60.09615385,112.822,113.321,3,1,0.493,,15,6,156,6,1,7,R,,3,,,,,,,
,,,,,,,,1,,2023-09-27_15h43.42.742,Motor_Task,2023.2.2,MacIntel,60.09615385,113.322,113.905,2,1,0.571,,15,7,157,7,1,8,M,,2,,,,,,,
,,,,,,,,1,,2023-09-27_15h43.42.742,Motor_Task,2023.2.2,MacIntel,60.09615385,113.905,114.622,4,1,0.711,,15,8,158,8,1,9,L,,4,,,,,,,
,,,,,,,,1,,2023-09-27_15h43.42.742,Motor_Task,2023.2.2,MacIntel,60.09615385,114.623,115.105,1,1,0.472,,15,9,159,9,1,10,I,,1,,,,,,,
,,,,,,,,1,,2023-09-27_15h43.42.742,Motor_Task,2023.2.2,MacIntel,60.09615385,115.106,115.555,2,1,0.445,,16,0,160,0,1,1,M,,2,,,,,,,
,,,,,,,,1,,2023-09-27_15h43.42.742,Motor_Task,2023.2.2,MacIntel,60.09615385,115.557,116.055,3,1,0.488,,16,1,161,1,1,2,R,,3,,,,,,,
,,,,,,,,1,,2023-09-27_15h43.42.742,Motor_Task,2023.2.2,MacIntel,60.09615385,116.056,116.538,2,1,0.478,,16,2,162,2,1,3,M,,2,,,,,,,
,,,,,,,,1,,2023-09-27_15h43.42.742,Motor_Task,2023.2.2,MacIntel,60.09615385,116.539,117.055,3,1,0.506,,16,3,163,3,1,4,R,,3,,,,,,,
,,,,,,,,1,,2023-09-27_15h43.42.742,Motor_Task,2023.2.2,MacIntel,60.09615385,117.056,117.588,1,1,0.525,,16,4,164,4,1,5,I,,1,,,,,,,
,,,,,,,,1,,2023-09-27_15h43.42.742,Motor_Task,2023.2.2,MacIntel,60.09615385,117.589,118.105,1,1,0.505,,16,5,165,5,1,6,I,,1,,,,,,,
,,,,,,,,1,,2023-09-27_15h43.42.742,Motor_Task,2023.2.2,MacIntel,60.09615385,118.106,118.605,3,1,0.487,,16,6,166,6,1,7,R,,3,,,,,,,
,,,,,,,,1,,2023-09-27_15h43.42.742,Motor_Task,2023.2.2,MacIntel,60.09615385,118.606,119.139,2,1,0.522,,16,7,167,7,1,8,M,,2,,,,,,,
,,,,,,,,1,,2023-09-27_15h43.42.742,Motor_Task,2023.2.2,MacIntel,60.09615385,119.139,119.689,4,1,0.537,,16,8,168,8,1,9,L,,4,,,,,,,
,,,,,,,,1,,2023-09-27_15h43.42.742,Motor_Task,2023.2.2,MacIntel,60.09615385,119.691,120.422,1,1,0.719,,16,9,169,9,1,10,I,,1,,,,,,,
,,,,,,,,1,,2023-09-27_15h43.42.742,Motor_Task,2023.2.2,MacIntel,60.09615385,120.422,120.939,2,1,0.506,,17,0,170,0,1,1,M,,2,,,,,,,
,,,,,,,,1,,2023-09-27_15h43.42.742,Motor_Task,2023.2.2,MacIntel,60.09615385,120.94,121.721,3,1,0.77,,17,1,171,1,1,2,R,,3,,,,,,,
,,,,,,,,1,,2023-09-27_15h43.42.742,Motor_Task,2023.2.2,MacIntel,60.09615385,121.723,122.321,2,1,0.588,,17,2,172,2,1,3,M,,2,,,,,,,
,,,,,,,,1,,2023-09-27_15h43.42.742,Motor_Task,2023.2.2,MacIntel,60.09615385,122.322,122.955,3,1,0.621,,17,3,173,3,1,4,R,,3,,,,,,,
,,,,,,,,1,,2023-09-27_15h43.42.742,Motor_Task,2023.2.2,MacIntel,60.09615385,122.956,123.655,1,1,0.692,,17,4,174,4,1,5,I,,1,,,,,,,
,,,,,,,,1,,2023-09-27_15h43.42.742,Motor_Task,2023.2.2,MacIntel,60.09615385,123.656,124.272,1,1,0.606,,17,5,175,5,1,6,I,,1,,,,,,,
,,,,,,,,1,,2023-09-27_15h43.42.742,Motor_Task,2023.2.2,MacIntel,60.09615385,124.274,124.805,3,1,0.52,,17,6,176,6,1,7,R,,3,,,,,,,
,,,,,,,,1,,2023-09-27_15h43.42.742,Motor_Task,2023.2.2,MacIntel,60.09615385,124.806,125.305,2,1,0.486,,17,7,177,7,1,8,M,,2,,,,,,,
,,,,,,,,1,,2023-09-27_15h43.42.742,Motor_Task,2023.2.2,MacIntel,60.09615385,125.306,126.072,4,1,0.754,,17,8,178,8,1,9,L,,4,,,,,,,
,,,,,,,,1,,2023-09-27_15h43.42.742,Motor_Task,2023.2.2,MacIntel,60.09615385,126.073,126.538,1,1,0.456,,17,9,179,9,1,10,I,,1,,,,,,,
,,,,,,,,1,,2023-09-27_15h43.42.742,Motor_Task,2023.2.2,MacIntel,60.09615385,126.539,127.056,2,1,0.506,,18,0,180,0,1,1,M,,2,,,,,,,
,,,,,,,,1,,2023-09-27_15h43.42.742,Motor_Task,2023.2.2,MacIntel,60.09615385,127.056,127.504,3,1,0.439,,18,1,181,1,1,2,R,,3,,,,,,,
,,,,,,,,1,,2023-09-27_15h43.42.742,Motor_Task,2023.2.2,MacIntel,60.09615385,127.505,127.988,2,1,0.473,,18,2,182,2,1,3,M,,2,,,,,,,
,,,,,,,,1,,2023-09-27_15h43.42.742,Motor_Task,2023.2.2,MacIntel,60.09615385,127.989,128.456,3,1,0.457,,18,3,183,3,1,4,R,,3,,,,,,,
,,,,,,,,1,,2023-09-27_15h43.42.742,Motor_Task,2023.2.2,MacIntel,60.09615385,128.456,129.071,1,1,0.607,,18,4,184,4,1,5,I,,1,,,,,,,
,,,,,,,,1,,2023-09-27_15h43.42.742,Motor_Task,2023.2.2,MacIntel,60.09615385,129.072,129.771,1,1,0.688,,18,5,185,5,1,6,I,,1,,,,,,,
,,,,,,,,1,,2023-09-27_15h43.42.742,Motor_Task,2023.2.2,MacIntel,60.09615385,129.772,130.438,3,1,0.654,,18,6,186,6,1,7,R,,3,,,,,,,
,,,,,,,,1,,2023-09-27_15h43.42.742,Motor_Task,2023.2.2,MacIntel,60.09615385,130.439,130.939,2,1,0.497,,18,7,187,7,1,8,M,,2,,,,,,,
,,,,,,,,1,,2023-09-27_15h43.42.742,Motor_Task,2023.2.2,MacIntel,60.09615385,130.939,131.555,4,1,0.604,,18,8,188,8,1,9,L,,4,,,,,,,
,,,,,,,,1,,2023-09-27_15h43.42.742,Motor_Task,2023.2.2,MacIntel,60.09615385,131.555,132.105,1,1,0.537,,18,9,189,9,1,10,I,,1,,,,,,,
,,,,,,,,1,,2023-09-27_15h43.42.742,Motor_Task,2023.2.2,MacIntel,60.09615385,132.105,132.571,2,1,0.457,,19,0,190,0,1,1,M,,2,,,,,,,
,,,,,,,,1,,2023-09-27_15h43.42.742,Motor_Task,2023.2.2,MacIntel,60.09615385,132.572,133.072,3,1,0.491,,19,1,191,1,1,2,R,,3,,,,,,,
,,,,,,,,1,,2023-09-27_15h43.42.742,Motor_Task,2023.2.2,MacIntel,60.09615385,133.073,133.555,2,1,0.475,,19,2,192,2,1,3,M,,2,,,,,,,
,,,,,,,,1,,2023-09-27_15h43.42.742,Motor_Task,2023.2.2,MacIntel,60.09615385,133.556,134.071,3,1,0.505,,19,3,193,3,1,4,R,,3,,,,,,,
,,,,,,,,1,,2023-09-27_15h43.42.742,Motor_Task,2023.2.2,MacIntel,60.09615385,134.071,134.521,1,1,0.441,,19,4,194,4,1,5,I,,1,,,,,,,
,,,,,,,,1,,2023-09-27_15h43.42.742,Motor_Task,2023.2.2,MacIntel,60.09615385,134.522,135.088,1,1,0.556,,19,5,195,5,1,6,I,,1,,,,,,,
,,,,,,,,1,,2023-09-27_15h43.42.742,Motor_Task,2023.2.2,MacIntel,60.09615385,135.089,135.588,3,1,0.488,,19,6,196,6,1,7,R,,3,,,,,,,
,,,,,,,,1,,2023-09-27_15h43.42.742,Motor_Task,2023.2.2,MacIntel,60.09615385,135.589,136.088,2,1,0.489,,19,7,197,7,1,8,M,,2,,,,,,,
,,,,,,,,1,,2023-09-27_15h43.42.742,Motor_Task,2023.2.2,MacIntel,60.09615385,136.089,136.738,4,1,0.638,,19,8,198,8,1,9,L,,4,,,,,,,
,,,,,,,,1,,2023-09-27_15h43.42.742,Motor_Task,2023.2.2,MacIntel,60.09615385,136.738,137.188,1,1,0.437,,19,9,199,9,1,10,I,,1,,,,,,,
,,,,,,,,1,,2023-09-27_15h43.42.742,Motor_Task,2023.2.2,MacIntel,60.09615385,137.202,137.889,4,1,0.677,,,,,,,9,L,,4,0,0,0,8,1,,
,,,,,,,,1,,2023-09-27_15h43.42.742,Motor_Task,2023.2.2,MacIntel,60.09615385,137.89,138.522,2,1,0.628,,,,,,,1,M,,2,0,1,1,0,1,,
,,,,,,,,1,,2023-09-27_15h43.42.742,Motor_Task,2023.2.2,MacIntel,60.09615385,138.523,139.022,3,1,0.495,,,,,,,7,R,,3,0,2,2,6,1,,
,,,,,,,,1,,2023-09-27_15h43.42.742,Motor_Task,2023.2.2,MacIntel,60.09615385,139.023,139.638,2,1,0.604,,,,,,,8,M,,2,0,3,3,7,1,,
,,,,,,,,1,,2023-09-27_15h43.42.742,Motor_Task,2023.2.2,MacIntel,60.09615385,139.639,140.456,2,1,0.805,,,,,,,3,M,,2,0,4,4,2,1,,
,,,,,,,,1,,2023-09-27_15h43.42.742,Motor_Task,2023.2.2,MacIntel,60.09615385,140.457,141.005,1,1,0.544,,,,,,,5,I,,1,0,5,5,4,1,,
,,,,,,,,1,,2023-09-27_15h43.42.742,Motor_Task,2023.2.2,MacIntel,60.09615385,141.006,141.605,1,1,0.59,,,,,,,6,I,,1,0,6,6,5,1,,
,,,,,,,,1,,2023-09-27_15h43.42.742,Motor_Task,2023.2.2,MacIntel,60.09615385,141.606,142.172,1,1,0.555,,,,,,,10,I,,1,0,7,7,9,1,,
,,,,,,,,1,,2023-09-27_15h43.42.742,Motor_Task,2023.2.2,MacIntel,60.09615385,142.172,142.788,3,1,0.607,,,,,,,4,R,,3,0,8,8,3,1,,
,,,,,,,,1,,2023-09-27_15h43.42.742,Motor_Task,2023.2.2,MacIntel,60.09615385,142.789,143.405,3,1,0.604,,,,,,,2,R,,3,0,9,9,1,1,,
,,,,,,,,1,,2023-09-27_15h43.42.742,Motor_Task,2023.2.2,MacIntel,60.09615385,143.405,143.922,2,1,0.504,,,,,,,8,M,,2,1,0,10,7,1,,
,,,,,,,,1,,2023-09-27_15h43.42.742,Motor_Task,2023.2.2,MacIntel,60.09615385,143.923,144.672,4,1,0.745,,,,,,,9,L,,4,1,1,11,8,1,,
,,,,,,,,1,,2023-09-27_15h43.42.742,Motor_Task,2023.2.2,MacIntel,60.09615385,144.673,145.221,4,0,0.537,,,,,,,2,R,,3,1,2,12,1,1,,
,,,,,,,,1,,2023-09-27_15h43.42.742,Motor_Task,2023.2.2,MacIntel,60.09615385,145.222,145.956,1,1,0.724,,,,,,,5,I,,1,1,3,13,4,1,,
,,,,,,,,1,,2023-09-27_15h43.42.742,Motor_Task,2023.2.2,MacIntel,60.09615385,145.957,146.456,3,1,0.488,,,,,,,4,R,,3,1,4,14,3,1,,
,,,,,,,,1,,2023-09-27_15h43.42.742,Motor_Task,2023.2.2,MacIntel,60.09615385,146.456,147.072,2,1,0.603,,,,,,,3,M,,2,1,5,15,2,1,,
,,,,,,,,1,,2023-09-27_15h43.42.742,Motor_Task,2023.2.2,MacIntel,60.09615385,147.073,147.672,1,1,0.589,,,,,,,6,I,,1,1,6,16,5,1,,
,,,,,,,,1,,2023-09-27_15h43.42.742,Motor_Task,2023.2.2,MacIntel,60.09615385,147.673,148.222,1,1,0.542,,,,,,,10,I,,1,1,7,17,9,1,,
,,,,,,,,1,,2023-09-27_15h43.42.742,Motor_Task,2023.2.2,MacIntel,60.09615385,148.223,148.922,2,1,0.691,,,,,,,1,M,,2,1,8,18,0,1,,
,,,,,,,,1,,2023-09-27_15h43.42.742,Motor_Task,2023.2.2,MacIntel,60.09615385,148.923,149.422,3,1,0.488,,,,,,,7,R,,3,1,9,19,6,1,,
,,,,,,,,1,,2023-09-27_15h43.42.742,Motor_Task,2023.2.2,MacIntel,60.09615385,149.422,149.972,2,1,0.539,,,,,,,8,M,,2,2,0,20,7,1,,
,,,,,,,,1,,2023-09-27_15h43.42.742,Motor_Task,2023.2.2,MacIntel,60.09615385,149.973,150.522,3,1,0.537,,,,,,,7,R,,3,2,1,21,6,1,,
,,,,,,,,1,,2023-09-27_15h43.42.742,Motor_Task,2023.2.2,MacIntel,60.09615385,150.522,150.988,2,1,0.455,,,,,,,1,M,,2,2,2,22,0,1,,
,,,,,,,,1,,2023-09-27_15h43.42.742,Motor_Task,2023.2.2,MacIntel,60.09615385,150.989,151.622,1,1,0.625,,,,,,,5,I,,1,2,3,23,4,1,,
,,,,,,,,1,,2023-09-27_15h43.42.742,Motor_Task,2023.2.2,MacIntel,60.09615385,151.623,152.256,4,1,0.621,,,,,,,9,L,,4,2,4,24,8,1,,
,,,,,,,,1,,2023-09-27_15h43.42.742,Motor_Task,2023.2.2,MacIntel,60.09615385,152.256,152.891,3,1,0.62,,,,,,,2,R,,3,2,5,25,1,1,,
,,,,,,,,1,,2023-09-27_15h43.42.742,Motor_Task,2023.2.2,MacIntel,60.09615385,152.893,153.539,1,1,0.634,,,,,,,10,I,,1,2,6,26,9,1,,
,,,,,,,,1,,2023-09-27_15h43.42.742,Motor_Task,2023.2.2,MacIntel,60.09615385,153.541,154.139,3,1,0.586,,,,,,,4,R,,3,2,7,27,3,1,,
,,,,,,,,1,,2023-09-27_15h43.42.742,Motor_Task,2023.2.2,MacIntel,60.09615385,154.14,154.688,1,0,0.537,,,,,,,3,M,,2,2,8,28,2,1,,
,,,,,,,,1,,2023-09-27_15h43.42.742,Motor_Task,2023.2.2,MacIntel,60.09615385,154.689,154.755,2,0,0.061,,,,,,,6,I,,1,2,9,29,5,1,,
,,,,,,,,1,,2023-09-27_15h43.42.742,Motor_Task,2023.2.2,MacIntel,60.09615385,154.757,155.858,1,1,1.089,,,,,,,5,I,,1,3,0,30,4,1,,
,,,,,,,,1,,2023-09-27_15h43.42.742,Motor_Task,2023.2.2,MacIntel,60.09615385,155.858,156.373,1,1,0.501,,,,,,,6,I,,1,3,1,31,5,1,,
,,,,,,,,1,,2023-09-27_15h43.42.742,Motor_Task,2023.2.2,MacIntel,60.09615385,156.373,156.989,3,1,0.606,,,,,,,2,R,,3,3,2,32,1,1,,
,,,,,,,,1,,2023-09-27_15h43.42.742,Motor_Task,2023.2.2,MacIntel,60.09615385,156.99,157.605,1,1,0.604,,,,,,,10,I,,1,3,3,33,9,1,,
,,,,,,,,1,,2023-09-27_15h43.42.742,Motor_Task,2023.2.2,MacIntel,60.09615385,157.605,158.172,2,1,0.555,,,,,,,1,M,,2,3,4,34,0,1,,
,,,,,,,,1,,2023-09-27_15h43.42.742,Motor_Task,2023.2.2,MacIntel,60.09615385,158.173,158.772,4,1,0.594,,,,,,,9,L,,4,3,5,35,8,1,,
,,,,,,,,1,,2023-09-27_15h43.42.742,Motor_Task,2023.2.2,MacIntel,60.09615385,158.773,159.539,2,1,0.755,,,,,,,3,M,,2,3,6,36,2,1,,
,,,,,,,,1,,2023-09-27_15h43.42.742,Motor_Task,2023.2.2,MacIntel,60.09615385,159.54,160.139,3,1,0.586,,,,,,,4,R,,3,3,7,37,3,1,,
,,,,,,,,1,,2023-09-27_15h43.42.742,Motor_Task,2023.2.2,MacIntel,60.09615385,160.14,160.74,3,1,0.591,,,,,,,7,R,,3,3,8,38,6,1,,
,,,,,,,,1,,2023-09-27_15h43.42.742,Motor_Task,2023.2.2,MacIntel,60.09615385,160.741,161.373,2,1,0.626,,,,,,,8,M,,2,3,9,39,7,1,,
,,,,,,,,1,,2023-09-27_15h43.42.742,Motor_Task,2023.2.2,MacIntel,60.09615385,161.374,161.889,3,1,0.504,,,,,,,2,R,,3,4,0,40,1,1,,
,,,,,,,,1,,2023-09-27_15h43.42.742,Motor_Task,2023.2.2,MacIntel,60.09615385,161.89,162.406,2,1,0.506,,,,,,,3,M,,2,4,1,41,2,1,,
,,,,,,,,1,,2023-09-27_15h43.42.742,Motor_Task,2023.2.2,MacIntel,60.09615385,162.406,163.006,1,1,0.588,,,,,,,10,I,,1,4,2,42,9,1,,
,,,,,,,,1,,2023-09-27_15h43.42.742,Motor_Task,2023.2.2,MacIntel,60.09615385,163.006,163.573,2,1,0.554,,,,,,,8,M,,2,4,3,43,7,1,,
,,,,,,,,1,,2023-09-27_15h43.42.742,Motor_Task,2023.2.2,MacIntel,60.09615385,163.573,164.306,1,1,0.723,,,,,,,5,I,,1,4,4,44,4,1,,
,,,,,,,,1,,2023-09-27_15h43.42.742,Motor_Task,2023.2.2,MacIntel,60.09615385,164.307,164.973,4,1,0.656,,,,,,,9,L,,4,4,5,45,8,1,,
,,,,,,,,1,,2023-09-27_15h43.42.742,Motor_Task,2023.2.2,MacIntel,60.09615385,164.973,165.639,3,1,0.653,,,,,,,4,R,,3,4,6,46,3,1,,
,,,,,,,,1,,2023-09-27_15h43.42.742,Motor_Task,2023.2.2,MacIntel,60.09615385,165.64,166.389,1,1,0.739,,,,,,,6,I,,1,4,7,47,5,1,,
,,,,,,,,1,,2023-09-27_15h43.42.742,Motor_Task,2023.2.2,MacIntel,60.09615385,166.39,166.955,3,1,0.555,,,,,,,7,R,,3,4,8,48,6,1,,
,,,,,,,,1,,2023-09-27_15h43.42.742,Motor_Task,2023.2.2,MacIntel,60.09615385,166.957,167.655,2,1,0.685,,,,,,,1,M,,2,4,9,49,0,1,,
,,,,,,,,1,,2023-09-27_15h43.42.742,Motor_Task,2023.2.2,MacIntel,60.09615385,,,,,,,,,,,,,,,,,,,,,167.656,171.656