Trigger.started,Trigger.stopped,key_resp_4.keys,key_resp_4.rt,key_resp_4.duration,mouse.x,mouse.y,mouse.leftButton,mouse.midButton,mouse.rightButton,Session,Subject,date,expName,psychopyVersion,OS,frameRate,complex_block.started,complex_block.stopped,key_resp.keys,key_resp.corr,key_resp.rt,key_resp.duration,complex_block_loop.thisRepN,complex_block_loop.thisTrialN,complex_block_loop.thisN,complex_block_loop.thisIndex,complex_block_loop.ran,trial,finger,markerPos,correctResp,new_block_loop.thisRepN,new_block_loop.thisTrialN,new_block_loop.thisN,new_block_loop.thisIndex,new_block_loop.ran,endBuffer.started,endBuffer.stopped
0,19.299,1,19.277,,0.309572301,-0.5,0,0,0,1,,2023-09-27_15h43.44.329,Motor_Task,2023.2.2,MacIntel,109.1703057,,,,,,,,,,,,,,,,,,,,,,
,,,,,,,,,,1,,2023-09-27_15h43.44.329,Motor_Task,2023.2.2,MacIntel,109.1703057,19.316,20.04,2,1,0.721,,0,0,0,0,1,1,M,,2,,,,,,,
,,,,,,,,,,1,,2023-09-27_15h43.44.329,Motor_Task,2023.2.2,MacIntel,109.1703057,20.041,20.541,3,1,0.498,,0,1,1,1,1,2,R,,3,,,,,,,
,,,,,,,,,,1,,2023-09-27_15h43.44.329,Motor_Task,2023.2.2,MacIntel,109.1703057,20.541,21.14,2,1,0.596,,0,2,2,2,1,3,M,,2,,,,,,,
,,,,,,,,,,1,,2023-09-27_15h43.44.329,Motor_Task,2023.2.2,MacIntel,109.1703057,21.141,21.625,3,1,0.483,,0,3,3,3,1,4,R,,3,,,,,,,
,,,,,,,,,,1,,2023-09-27_15h43.44.329,Motor_Task,2023.2.2,MacIntel,109.1703057,21.626,22.251,1,1,0.624,,0,4,4,4,1,5,I,,1,,,,,,,
,,,,,,,,,,1,,2023-09-27_15h43.44.329,Motor_Task,2023.2.2,MacIntel,109.1703057,22.251,22.775,1,1,0.519,,0,5,5,5,1,6,I,,1,,,,,,,
,,,,,,,,,,1,,2023-09-27_15h43.44.329,Motor_Task,2023.2.2,MacIntel,109.1703057,22.776,23.307,3,1,0.528,,0,6,6,6,1,7,R,,3,,,,,,,
,,,,,,,,,,1,,2023-09-27_15h43.44.329,Motor_Task,2023.2.2,MacIntel,109.1703057,23.307,23.791,2,1,0.479,,0,7,7,7,1,8,M,,2,,,,,,,
,,,,,,,,,,1,,2023-09-27_15h43.44.329,Motor_Task,2023.2.2,MacIntel,109.1703057,23.792,24.282,3,0,0.487,,0,8,8,8,1,9,L,,4,,,,,,,
,,,,,,,,,,1,,2023-09-27_15h43.44.329,Motor_Task,2023.2.2,MacIntel,109.1703057,24.283,24.549,4,0,0.264,,0,9,9,9,1,10,I,,1,,,,,,,
,,,,,,,,,,1,,2023-09-27_15h43.44.329,Motor_Task,2023.2.2,MacIntel,109.1703057,24.549,25.239,2,1,0.687,,1,0,10,0,1,1,M,,2,,,,,,,
,,,,,,,,,,1,,2023-09-27_15h43.44.329,Motor_Task,2023.2.2,MacIntel,109.1703057,25.24,25.841,3,1,0.595,,1,1,11,1,1,2,R,,3,,,,,,,
,,,,,,,,,,1,,2023-09-27_15h43.44.329,Motor_Task,2023.2.2,MacIntel,109.1703057,25.842,26.482,2,1,0.637,,1,2,12,2,1,3,M,,2,,,,,,,
,,,,,,,,,,1,,2023-09-27_15h43.44.329,Motor_Task,2023.2.2,MacIntel,109.1703057,26.482,26.931,3,1,0.447,,1,3,13,3,1,4,R,,3,,,,,,,
,,,,,,,,,,1,,2023-09-27_15h43.44.329,Motor_Task,2023.2.2,MacIntel,109.1703057,26.932,27.507,1,1,0.571,,1,4,14,4,1,5,I,,1,,,,,,,
,,,,,,,,,,1,,2023-09-27_15h43.44.329,Motor_Task,2023.2.2,MacIntel,109.1703057,27.507,28.056,1,1,0.546,,1,5,15,5,1,6,I,,1,,,,,,,
,,,,,,,,,,1,,2023-09-27_15h43.44.329,Motor_Task,2023.2.2,MacIntel,109.1703057,28.057,28.589,3,1,0.529,,1,6,16,6,1,7,R,,3,,,,,,,
,,,,,,,,,,1,,2023-09-27_15h43.44.329,Motor_Task,2023.2.2,MacIntel,109.1703057,28.59,29.132,2,1,0.538,,1,7,17,7,1,8,M,,2,,,,,,,
,,,,,,,,,,1,,2023-09-27_15h43.44.329,Motor_Task,2023.2.2,MacIntel,109.1703057,29.134,29.707,4,1,0.573,,1,8,18,8,1,9,L,,4,,,,,,,
,,,,,,,,,,1,,2023-09-27_15h43.44.329,Motor_Task,2023.2.2,MacIntel,109.1703057,29.708,30.315,1,1,0.605,,1,9,19,9,1,10,I,,1,,,,,,,
,,,,,,,,,,1,,2023-09-27_15h43.44.329,Motor_Task,2023.2.2,MacIntel,109.1703057,30.315,30.824,2,1,0.507,,2,0,20,0,1,1,M,,2,,,,,,,
,,,,,,,,,,1,,2023-09-27_15h43.44.329,Motor_Task,2023.2.2,MacIntel,109.1703057,30.824,31.341,3,1,0.517,,2,1,21,1,1,2,R,,3,,,,,,,
,,,,,,,,,,1,,2023-09-27_15h43.44.329,Motor_Task,2023.2.2,MacIntel,109.1703057,31.342,31.932,2,1,0.589,,2,2,22,2,1,3,M,,2,,,,,,,
,,,,,,,,,,1,,2023-09-27_15h43.44.329,Motor_Task,2023.2.2,MacIntel,109.1703057,31.934,32.431,3,1,0.492,,2,3,23,3,1,4,R,,3,,,,,,,
,,,,,,,,,,1,,2023-09-27_15h43.44.329,Motor_Task,2023.2.2,MacIntel,109.1703057,32.432,33.007,1,1,0.571,,2,4,24,4,1,5,I,,1,,,,,,,
,,,,,,,,,,1,,2023-09-27_15h43.44.329,Motor_Task,2023.2.2,MacIntel,109.1703057,33.008,33.515,1,1,0.506,,2,5,25,5,1,6,I,,1,,,,,,,
,,,,,,,,,,1,,2023-09-27_15h43.44.329,Motor_Task,2023.2.2,MacIntel,109.1703057,33.516,34.074,3,1,0.556,,2,6,26,6,1,7,R,,3,,,,,,,
,,,,,,,,,,1,,2023-09-27_15h43.44.329,Motor_Task,2023.2.2,MacIntel,109.1703057,34.074,34.674,2,1,0.596,,2,7,27,7,1,8,M,,2,,,,,,,
,,,,,,,,,,1,,2023-09-27_15h43.44.329,Motor_Task,2023.2.2,MacIntel,109.1703057,34.674,35.256,4,1,0.58,,2,8,28,8,1,9,L,,4,,,,,,,
,,,,,,,,,,1,,2023-09-27_15h43.44.329,Motor_Task,2023.2.2,MacIntel,109.1703057,35.257,35.79,1,1,0.53,,2,9,29,9,1,10,I,,1,,,,,,,
,,,,,,,,,,1,,2023-09-27_15h43.44.329,Motor_Task,2023.2.2,MacIntel,109.1703057,35.791,36.315,2,1,0.524,,3,0,30,0,1,1,M,,2,,,,,,,
,,,,,,,,,,1,,2023-09-27_15h43.44.329,Motor_Task,2023.2.2,MacIntel,109.1703057,36.316,36.824,3,1,0.505,,3,1,31,1,1,2,R,,3,,,,,,,
,,,,,,,,,,1,,2023-09-27_15h43.44.329,Motor_Task,2023.2.2,MacIntel,109.1703057,36.824,37.399,2,1,0.572,,3,2,32,2,1,3,M,,2,,,,,,,
,,,,,,,,,,1,,2023-09-27_15h43.44.329,Motor_Task,2023.2.2,MacIntel,109.1703057,37.399,38,2,0,0.594,,3,3,33,3,1,4,R,,3,,,,,,,
,,,,,,,,,,1,,2023-09-27_15h43.44.329,Motor_Task,2023.2.2,MacIntel,109.1703057,38.001,38.373,3,0,0.37,,3,4,34,4,1,5,I,,1,,,,,,,
,,,,,,,,,,1,,2023-09-27_15h43.44.329,Motor_Task,2023.2.2,MacIntel,109.1703057,38.373,38.782,1,1,0.404,,3,5,35,5,1,6,I,,1,,,,,,,
,,,,,,,,,,1,,2023-09-27_15h43.44.329,Motor_Task,2023.2.2,MacIntel,109.1703057,38.782,39.298,3,1,0.514,,3,6,36,6,1,7,R,,3,,,,,,,
,,,,,,,,,,1,,2023-09-27_15h43.44.329,Motor_Task,2023.2.2,MacIntel,109.1703057,39.298,39.849,2,1,0.545,,3,7,37,7,1,8,M,,2,,,,,,,
,,,,,,,,,,1,,2023-09-27_15h43.44.329,Motor_Task,2023.2.2,MacIntel,109.1703057,39.85,40.39,4,1,0.538,,3,8,38,8,1,9,L,,4,,,,,,,
,,,,,,,,,,1,,2023-09-27_15h43.44.329,Motor_Task,2023.2.2,MacIntel,109.1703057,40.39,40.94,1,1,0.548,,3,9,39,9,1,10,I,,1,,,,,,,
,,,,,,,,,,1,,2023-09-27_15h43.44.329,Motor_Task,2023.2.2,MacIntel,109.1703057,40.94,41.458,2,1,0.513,,4,0,40,0,1,1,M,,2,,,,,,,
,,,,,,,,,,1,,2023-09-27_15h43.44.329,Motor_Task,2023.2.2,MacIntel,109.1703057,41.459,41.932,3,1,0.471,,4,1,41,1,1,2,R,,3,,,,,,,
,,,,,,,,,,1,,2023-09-27_15h43.44.329,Motor_Task,2023.2.2,MacIntel,109.1703057,41.932,42.525,2,1,0.585,,4,2,42,2,1,3,M,,2,,,,,,,
,,,,,,,,,,1,,2023-09-27_15h43.44.329,Motor_Task,2023.2.2,MacIntel,109.1703057,42.526,43.014,3,1,0.484,,4,3,43,3,1,4,R,,3,,,,,,,
,,,,,,,,,,1,,2023-09-27_15h43.44.329,Motor_Task,2023.2.2,MacIntel,109.1703057,43.015,43.608,1,1,0.592,,4,4,44,4,1,5,I,,1,,,,,,,
,,,,,,,,,,1,,2023-09-27_15h43.44.329,Motor_Task,2023.2.2,MacIntel,109.1703057,43.608,44.173,1,1,0.562,,4,5,45,5,1,6,I,,1,,,,,,,
,,,,,,,,,,1,,2023-09-27_15h43.44.329,Motor_Task,2023.2.2,MacIntel,109.1703057,44.174,44.699,3,1,0.523,,4,6,46,6,1,7,R,,3,,,,,,,
,,,,,,,,,,1,,2023-09-27_15h43.44.329,Motor_Task,2023.2.2,MacIntel,109.1703057,44.699,45.223,2,1,0.522,,4,7,47,7,1,8,M,,2,,,,,,,
,,,,,,,,,,1,,2023-09-27_15h43.44.329,Motor_Task,2023.2.2,MacIntel,109.1703057,45.224,45.79,4,1,0.563,,4,8,48,8,1,9,L,,4,,,,,,,
,,,,,,,,,,1,,2023-09-27_15h43.44.329,Motor_Task,2023.2.2,MacIntel,109.1703057,45.79,46.273,1,1,0.478,,4,9,49,9,1,10,I,,1,,,,,,,
,,,,,,,,,,1,,2023-09-27_15h43.44.329,Motor_Task,2023.2.2,MacIntel,109.1703057,46.274,46.773,2,1,0.496,,5,0,50,0,1,1,M,,2,,,,,,,
,,,,,,,,,,1,,2023-09-27_15h43.44.329,Motor_Task,2023.2.2,MacIntel,109.1703057,46.774,47.273,3,1,0.496,,5,1,51,1,1,2,R,,3,,,,,,,
,,,,,,,,,,1,,2023-09-27_15h43.44.329,Motor_Task,2023.2.2,MacIntel,109.1703057,47.274,47.807,2,1,0.528,,5,2,52,2,1,3,M,,2,,,,,,,
,,,,,,,,,,1,,2023-09-27_15h43.44.329,Motor_Task,2023.2.2,MacIntel,109.1703057,47.807,48.273,3,1,0.465,,5,3,53,3,1,4,R,,3,,,,,,,
,,,,,,,,,,1,,2023-09-27_15h43.44.329,Motor_Task,2023.2.2,MacIntel,109.1703057,48.274,48.757,1,1,0.482,,5,4,54,4,1,5,I,,1,,,,,,,
,,,,,,,,,,1,,2023-09-27_15h43.44.329,Motor_Task,2023.2.2,MacIntel,109.1703057,48.758,49.298,1,1,0.538,,5,5,55,5,1,6,I,,1,,,,,,,
,,,,,,,,,,1,,2023-09-27_15h43.44.329,Motor_Task,2023.2.2,MacIntel,109.1703057,49.298,49.839,3,1,0.541,,5,6,56,6,1,7,R,,3,,,,,,,
,,,,,,,,,,1,,2023-09-27_15h43.44.329,Motor_Task,2023.2.2,MacIntel,109.1703057,49.84,50.44,2,1,0.598,,5,7,57,7,1,8,M,,2,,,,,,,
,,,,,,,,,,1,,2023-09-27_15h43.44.329,Motor_Task,2023.2.2,MacIntel,109.1703057,50.44,51.015,4,1,0.571,,5,8,58,8,1,9,L,,4,,,,,,,
,,,,,,,,,,1,,2023-09-27_15h43.44.329,Motor_Task,2023.2.2,MacIntel,109.1703057,51.015,51.565,1,1,0.545,,5,9,59,9,1,10,I,,1,,,,,,,
,,,,,,,,,,1,,2023-09-27_15h43.44.329,Motor_Task,2023.2.2,MacIntel,109.1703057,51.565,52.074,2,1,0.503,,6,0,60,0,1,1,M,,2,,,,,,,
,,,,,,,,,,1,,2023-09-27_15h43.44.329,Motor_Task,2023.2.2,MacIntel,109.1703057,52.074,52.59,3,1,0.515,,6,1,61,1,1,2,R,,3,,,,,,,
,,,,,,,,,,1,,2023-09-27_15h43.44.329,Motor_Task,2023.2.2,MacIntel,109.1703057,52.59,53.173,2,1,0.58,,6,2,62,2,1,3,M,,2,,,,,,,
,,,,,,,,,,1,,2023-09-27_15h43.44.329,Motor_Task,2023.2.2,MacIntel,109.1703057,53.174,53.781,3,1,0.605,,6,3,63,3,1,4,R,,3,,,,,,,
,,,,,,,,,,1,,2023-09-27_15h43.44.329,Motor_Task,2023.2.2,MacIntel,109.1703057,53.782,54.349,1,1,0.562,,6,4,64,4,1,5,I,,1,,,,,,,
,,,,,,,,,,1,,2023-09-27_15h43.44.329,Motor_Task,2023.2.2,MacIntel,109.1703057,54.349,54.916,1,1,0.562,,6,5,65,5,1,6,I,,1,,,,,,,
,,,,,,,,,,1,,2023-09-27_15h43.44.329,Motor_Task,2023.2.2,MacIntel,109.1703057,54.916,55.557,2,0,0.634,,6,6,66,6,1,7,R,,3,,,,,,,
,,,,,,,,,,1,,2023-09-27_15h43.44.329,Motor_Task,2023.2.2,MacIntel,109.1703057,55.558,55.782,3,0,0.221,,6,7,67,7,1,8,M,,2,,,,,,,
,,,,,,,,,,1,,2023-09-27_15h43.44.329,Motor_Task,2023.2.2,MacIntel,109.1703057,55.782,56.474,4,1,0.687,,6,8,68,8,1,9,L,,4,,,,,,,
,,,,,,,,,,1,,2023-09-27_15h43.44.329,Motor_Task,2023.2.2,MacIntel,109.1703057,56.475,57.074,1,1,0.598,,6,9,69,9,1,10,I,,1,,,,,,,
,,,,,,,,,,1,,2023-09-27_15h43.44.329,Motor_Task,2023.2.2,MacIntel,109.1703057,57.075,57.615,2,1,0.536,,7,0,70,0,1,1,M,,2,,,,,,,
,,,,,,,,,,1,,2023-09-27_15h43.44.329,Motor_Task,2023.2.2,MacIntel,109.1703057,57.615,58.124,3,1,0.505,,7,1,71,1,1,2,R,,3,,,,,,,
,,,,,,,,,,1,,2023-09-27_15h43.44.329,Motor_Task,2023.2.2,MacIntel,109.1703057,58.124,58.673,2,1,0.546,,7,2,72,2,1,3,M,,2,,,,,,,
,,,,,,,,,,1,,2023-09-27_15h43.44.329,Motor_Task,2023.2.2,MacIntel,109.1703057,58.674,59.273,3,1,0.595,,7,3,73,3,1,4,R,,3,,,,,,,
,,,,,,,,,,1,,2023-09-27_15h43.44.329,Motor_Task,2023.2.2,MacIntel,109.1703057,59.273,59.84,1,1,0.563,,7,4,74,4,1,5,I,,1,,,,,,,
,,,,,,,,,,1,,2023-09-27_15h43.44.329,Motor_Task,2023.2.2,MacIntel,109.1703057,59.84,60.342,1,1,0.5,,7,5,75,5,1,6,I,,1,,,,,,,
,,,,,,,,,,1,,2023-09-27_15h43.44.329,Motor_Task,2023.2.2,MacIntel,109.1703057,60.343,60.876,3,1,0.533,,7,6,76,6,1,7,R,,3,,,,,,,
,,,,,,,,,,1,,2023-09-27_15h43.44.329,Motor_Task,2023.2.2,MacIntel,109.1703057,60.877,61.49,2,1,0.61,,7,7,77,7,1,8,M,,2,,,,,,,
,,,,,,,,,,1,,2023-09-27_15h43.44.329,Motor_Task,2023.2.2,MacIntel,109.1703057,61.49,62.125,4,1,0.634,,7,8,78,8,1,9,L,,4,,,,,,,
,,,,,,,,,,1,,2023-09-27_15h43.44.329,Motor_Task,2023.2.2,MacIntel,109.1703057,62.125,62.706,1,1,0.579,,7,9,79,9,1,10,I,,1,,,,,,,
,,,,,,,,,,1,,2023-09-27_15h43.44.329,Motor_Task,2023.2.2,MacIntel,109.1703057,62.707,63.373,2,1,0.664,,8,0,80,0,1,1,M,,2,,,,,,,
,,,,,,,,,,1,,2023-09-27_15h43.44.329,Motor_Task,2023.2.2,MacIntel,109.1703057,63.373,63.941,3,1,0.567,,8,1,81,1,1,2,R,,3,,,,,,,
,,,,,,,,,,1,,2023-09-27_15h43.44.329,Motor_Task,2023.2.2,MacIntel,109.1703057,63.942,64.507,2,1,0.562,,8,2,82,2,1,3,M,,2,,,,,,,
,,,,,,,,,,1,,2023-09-27_15h43.44.329,Motor_Task,2023.2.2,MacIntel,109.1703057,64.51,65.023,3,1,0.511,,8,3,83,3,1,4,R,,3,,,,,,,
,,,,,,,,,,1,,2023-09-27_15h43.44.329,Motor_Task,2023.2.2,MacIntel,109.1703057,65.025,65.59,1,1,0.563,,8,4,84,4,1,5,I,,1,,,,,,,
,,,,,,,,,,1,,2023-09-27_15h43.44.329,Motor_Task,2023.2.2,MacIntel,109.1703057,65.59,66.14,1,1,0.546,,8,5,85,5,1,6,I,,1,,,,,,,
,,,,,,,,,,1,,2023-09-27_15h43.44.329,Motor_Task,2023.2.2,MacIntel,109.1703057,66.141,66.839,3,1,0.696,,8,6,86,6,1,7,R,,3,,,,,,,
,,,,,,,,,,1,,2023-09-27_15h43.44.329,Motor_Task,2023.2.2,MacIntel,109.1703057,66.839,67.376,2,1,0.536,,8,7,87,7,1,8,M,,2,,,,,,,
,,,,,,,,,,1,,2023-09-27_15h43.44.329,Motor_Task,2023.2.2,MacIntel,109.1703057,67.376,68.041,4,1,0.657,,8,8,88,8,1,9,L,,4,,,,,,,
,,,,,,,,,,1,,2023-09-27_15h43.44.329,Motor_Task,2023.2.2,MacIntel,109.1703057,68.042,68.574,1,1,0.529,,8,9,89,9,1,10,I,,1,,,,,,,
,,,,,,,,,,1,,2023-09-27_15h43.44.329,Motor_Task,2023.2.2,MacIntel,109.1703057,68.574,69.09,2,1,0.511,,9,0,90,0,1,1,M,,2,,,,,,,
,,,,,,,,,,1,,2023-09-27_15h43.44.329,Motor_Task,2023.2.2,MacIntel,109.1703057,69.09,69.641,3,1,0.546,,9,1,91,1,1,2,R,,3,,,,,,,
,,,,,,,,,,1,,2023-09-27_15h43.44.329,Motor_Task,2023.2.2,MacIntel,109.1703057,69.642,70.156,2,1,0.511,,9,2,92,2,1,3,M,,2,,,,,,,
,,,,,,,,,,1,,2023-09-27_15h43.44.329,Motor_Task,2023.2.2,MacIntel,109.1703057,70.157,70.666,3,1,0.502,,9,3,93,3,1,4,R,,3,,,,,,,
,,,,,,,,,,1,,2023-09-27_15h43.44.329,Motor_Task,2023.2.2,MacIntel,109.1703057,70.666,71.151,1,1,0.483,,9,4,94,4,1,5,I,,1,,,,,,,
,,,,,,,,,,1,,2023-09-27_15h43.44.329,Motor_Task,2023.2.2,MacIntel,109.1703057,71.151,71.742,1,1,0.59,,9,5,95,5,1,6,I,,1,,,,,,,
,,,,,,,,,,1,,2023-09-27_15h43.44.329,Motor_Task,2023.2.2,MacIntel,109.1703057,71.742,72.307,3,1,0.564,,9,6,96,6,1,7,R,,3,,,,,,,
,,,,,,,,,,1,,2023-09-27_15h43.44.329,Motor_Task,2023.2.2,MacIntel,109.1703057,72.308,72.757,2,1,0.447,,9,7,97,7,1,8,M,,2,,,,,,,
,,,,,,,,,,1,,2023-09-27_15h43.44.329,Motor_Task,2023.2.2,MacIntel,109.1703057,72.757,73.223,4,1,0.46,,9,8,98,8,1,9,L,,4,,,,,,,
,,,,,,,,,,1,,2023-09-27_15h43.44.329,Motor_Task,2023.2.2,MacIntel,109.1703057,73.223,73.758,1,1,0.535,,9,9,99,9,1,10,I,,1,,,,,,,
,,,,,,,,,,1,,2023-09-27_15h43.44.329,Motor_Task,2023.2.2,MacIntel,109.1703057,73.759,74.225,2,1,0.46,,10,0,100,0,1,1,M,,2,,,,,,,
,,,,,,,,,,1,,2023-09-27_15h43.44.329,Motor_Task,2023.2.2,MacIntel,109.1703057,74.225,74.573,3,1,0.346,,10,1,101,1,1,2,R,,3,,,,,,,
,,,,,,,,,,1,,2023-09-27_15h43.44.329,Motor_Task,2023.2.2,MacIntel,109.1703057,74.574,74.948,2,1,0.372,,10,2,102,2,1,3,M,,2,,,,,,,
,,,,,,,,,,1,,2023-09-27_15h43.44.329,Motor_Task,2023.2.2,MacIntel,109.1703057,74.948,75.323,3,1,0.373,,10,3,103,3,1,4,R,,3,,,,,,,
,,,,,,,,,,1,,2023-09-27_15h43.44.329,Motor_Task,2023.2.2,MacIntel,109.1703057,75.324,75.809,1,1,0.485,,10,4,104,4,1,5,I,,1,,,,,,,
,,,,,,,,,,1,,2023-09-27_15h43.44.329,Motor_Task,2023.2.2,MacIntel,109.1703057,75.81,76.453,1,1,0.643,,10,5,105,5,1,6,I,,1,,,,,,,
,,,,,,,,,,1,,2023-09-27_15h43.44.329,Motor_Task,2023.2.2,MacIntel,109.1703057,76.454,76.948,3,1,0.489,,10,6,106,6,1,7,R,,3,,,,,,,
,,,,,,,,,,1,,2023-09-27_15h43.44.329,Motor_Task,2023.2.2,MacIntel,109.1703057,76.949,77.41,2,1,0.461,,10,7,107,7,1,8,M,,2,,,,,,,
,,,,,,,,,,1,,2023-09-27_15h43.44.329,Motor_Task,2023.2.2,MacIntel,109.1703057,77.411,77.898,4,1,0.486,,10,8,108,8,1,9,L,,4,,,,,,,
,,,,,,,,,,1,,2023-09-27_15h43.44.329,Motor_Task,2023.2.2,MacIntel,109.1703057,77.898,78.407,1,1,0.505,,10,9,109,9,1,10,I,,1,,,,,,,
,,,,,,,,,,1,,2023-09-27_15h43.44.329,Motor_Task,2023.2.2,MacIntel,109.1703057,78.409,78.974,2,1,0.562,,11,0,110,0,1,1,M,,2,,,,,,,
,,,,,,,,,,1,,2023-09-27_15h43.44.329,Motor_Task,2023.2.2,MacIntel,109.1703057,78.975,79.29,3,1,0.314,,11,1,111,1,1,2,R,,3,,,,,,,
,,,,,,,,,,1,,2023-09-27_15h43.44.329,Motor_Task,2023.2.2,MacIntel,109.1703057,79.29,79.54,2,1,0.247,,11,2,112,2,1,3,M,,2,,,,,,,
,,,,,,,,,,1,,2023-09-27_15h43.44.329,Motor_Task,2023.2.2,MacIntel,109.1703057,79.54,79.923,3,1,0.381,,11,3,113,3,1,4,R,,3,,,,,,,
,,,,,,,,,,1,,2023-09-27_15h43.44.329,Motor_Task,2023.2.2,MacIntel,109.1703057,79.924,80.382,1,1,0.453,,11,4,114,4,1,5,I,,1,,,,,,,
,,,,,,,,,,1,,2023-09-27_15h43.44.329,Motor_Task,2023.2.2,MacIntel,109.1703057,80.382,81.091,2,0,0.702,,11,5,115,5,1,6,I,,1,,,,,,,
,,,,,,,,,,1,,2023-09-27_15h43.44.329,Motor_Task,2023.2.2,MacIntel,109.1703057,81.091,81.206,1,0,0.113,,11,6,116,6,1,7,R,,3,,,,,,,
,,,,,,,,,,1,,2023-09-27_15h43.44.329,Motor_Task,2023.2.2,MacIntel,109.1703057,81.208,81.698,2,1,0.488,,11,7,117,7,1,8,M,,2,,,,,,,
,,,,,,,,,,1,,2023-09-27_15h43.44.329,Motor_Task,2023.2.2,MacIntel,109.1703057,81.698,82.098,4,1,0.396,,11,8,118,8,1,9,L,,4,,,,,,,
,,,,,,,,,,1,,2023-09-27_15h43.44.329,Motor_Task,2023.2.2,MacIntel,109.1703057,82.099,82.606,1,1,0.507,,11,9,119,9,1,10,I,,1,,,,,,,
,,,,,,,,,,1,,2023-09-27_15h43.44.329,Motor_Task,2023.2.2,MacIntel,109.1703057,82.607,83.099,2,1,0.487,,12,0,120,0,1,1,M,,2,,,,,,,
,,,,,,,,,,1,,2023-09-27_15h43.44.329,Motor_Task,2023.2.2,MacIntel,109.1703057,83.1,83.423,3,1,0.321,,12,1,121,1,1,2,R,,3,,,,,,,
,,,,,,,,,,1,,2023-09-27_15h43.44.329,Motor_Task,2023.2.2,MacIntel,109.1703057,83.424,83.697,2,1,0.272,,12,2,122,2,1,3,M,,2,,,,,,,
,,,,,,,,,,1,,2023-09-27_15h43.44.329,Motor_Task,2023.2.2,MacIntel,109.1703057,83.697,84.006,3,1,0.305,,12,3,123,3,1,4,R,,3,,,,,,,
,,,,,,,,,,1,,2023-09-27_15h43.44.329,Motor_Task,2023.2.2,MacIntel,109.1703057,84.007,84.331,1,1,0.322,,12,4,124,4,1,5,I,,1,,,,,,,
,,,,,,,,,,1,,2023-09-27_15h43.44.329,Motor_Task,2023.2.2,MacIntel,109.1703057,84.332,85.032,1,1,0.694,,12,5,125,5,1,6,I,,1,,,,,,,
,,,,,,,,,,1,,2023-09-27_15h43.44.329,Motor_Task,2023.2.2,MacIntel,109.1703057,85.032,85.599,3,1,0.562,,12,6,126,6,1,7,R,,3,,,,,,,
,,,,,,,,,,1,,2023-09-27_15h43.44.329,Motor_Task,2023.2.2,MacIntel,109.1703057,85.6,86.107,2,1,0.504,,12,7,127,7,1,8,M,,2,,,,,,,
,,,,,,,,,,1,,2023-09-27_15h43.44.329,Motor_Task,2023.2.2,MacIntel,109.1703057,86.107,86.424,4,1,0.315,,12,8,128,8,1,9,L,,4,,,,,,,
,,,,,,,,,,1,,2023-09-27_15h43.44.329,Motor_Task,2023.2.2,MacIntel,109.1703057,86.424,86.857,2,0,0.429,,12,9,129,9,1,10,I,,1,,,,,,,
,,,,,,,,,,1,,2023-09-27_15h43.44.329,Motor_Task,2023.2.2,MacIntel,109.1703057,86.858,87.098,1,0,0.239,,13,0,130,0,1,1,M,,2,,,,,,,
,,,,,,,,,,1,,2023-09-27_15h43.44.329,Motor_Task,2023.2.2,MacIntel,109.1703057,87.099,87.649,3,1,0.543,,13,1,131,1,1,2,R,,3,,,,,,,
,,,,,,,,,,1,,2023-09-27_15h43.44.329,Motor_Task,2023.2.2,MacIntel,109.1703057,87.649,88.106,2,1,0.454,,13,2,132,2,1,3,M,,2,,,,,,,
,,,,,,,,,,1,,2023-09-27_15h43.44.329,Motor_Task,2023.2.2,MacIntel,109.1703057,88.106,88.408,3,1,0.296,,13,3,133,3,1,4,R,,3,,,,,,,
,,,,,,,,,,1,,2023-09-27_15h43.44.329,Motor_Task,2023.2.2,MacIntel,109.1703057,88.409,88.841,1,1,0.43,,13,4,134,4,1,5,I,,1,,,,,,,
,,,,,,,,,,1,,2023-09-27_15h43.44.329,Motor_Task,2023.2.2,MacIntel,109.1703057,88.841,89.389,1,1,0.547,,13,5,135,5,1,6,I,,1,,,,,,,
,,,,,,,,,,1,,2023-09-27_15h43.44.329,Motor_Task,2023.2.2,MacIntel,109.1703057,89.39,89.99,4,0,0.595,,13,6,136,6,1,7,R,,3,,,,,,,
,,,,,,,,,,1,,2023-09-27_15h43.44.329,Motor_Task,2023.2.2,MacIntel,109.1703057,89.991,90.223,3,0,0.229,,13,7,137,7,1,8,M,,2,,,,,,,
,,,,,,,,,,1,,2023-09-27_15h43.44.329,Motor_Task,2023.2.2,MacIntel,109.1703057,90.223,90.934,2,0,0.711,,13,8,138,8,1,9,L,,4,,,,,,,
,,,,,,,,,,1,,2023-09-27_15h43.44.329,Motor_Task,2023.2.2,MacIntel,109.1703057,90.934,91.29,4,0,0.353,,13,9,139,9,1,10,I,,1,,,,,,,
,,,,,,,,,,1,,2023-09-27_15h43.44.329,Motor_Task,2023.2.2,MacIntel,109.1703057,91.29,91.714,1,0,0.419,,14,0,140,0,1,1,M,,2,,,,,,,
,,,,,,,,,,1,,2023-09-27_15h43.44.329,Motor_Task,2023.2.2,MacIntel,109.1703057,91.715,92.007,2,0,0.288,,14,1,141,1,1,2,R,,3,,,,,,,
,,,,,,,,,,1,,2023-09-27_15h43.44.329,Motor_Task,2023.2.2,MacIntel,109.1703057,92.007,92.365,3,0,0.355,,14,2,142,2,1,3,M,,2,,,,,,,
,,,,,,,,,,1,,2023-09-27_15h43.44.329,Motor_Task,2023.2.2,MacIntel,109.1703057,92.366,92.623,2,0,0.253,,14,3,143,3,1,4,R,,3,,,,,,,
,,,,,,,,,,1,,2023-09-27_15h43.44.329,Motor_Task,2023.2.2,MacIntel,109.1703057,92.623,92.873,3,0,0.249,,14,4,144,4,1,5,I,,1,,,,,,,
,,,,,,,,,,1,,2023-09-27_15h43.44.329,Motor_Task,2023.2.2,MacIntel,109.1703057,92.874,93.369,1,1,0.494,,14,5,145,5,1,6,I,,1,,,,,,,
,,,,,,,,,,1,,2023-09-27_15h43.44.329,Motor_Task,2023.2.2,MacIntel,109.1703057,93.369,94.082,3,1,0.709,,14,6,146,6,1,7,R,,3,,,,,,,
,,,,,,,,,,1,,2023-09-27_15h43.44.329,Motor_Task,2023.2.2,MacIntel,109.1703057,94.082,94.623,2,1,0.535,,14,7,147,7,1,8,M,,2,,,,,,,
,,,,,,,,,,1,,2023-09-27_15h43.44.329,Motor_Task,2023.2.2,MacIntel,109.1703057,94.624,96.028,4,1,1.401,,14,8,148,8,1,9,L,,4,,,,,,,
,,,,,,,,,,1,,2023-09-27_15h43.44.329,Motor_Task,2023.2.2,MacIntel,109.1703057,96.028,96.69,1,1,0.655,,14,9,149,9,1,10,I,,1,,,,,,,
,,,,,,,,,,1,,2023-09-27_15h43.44.329,Motor_Task,2023.2.2,MacIntel,109.1703057,96.691,97.225,2,1,0.532,,15,0,150,0,1,1,M,,2,,,,,,,
,,,,,,,,,,1,,2023-09-27_15h43.44.329,Motor_Task,2023.2.2,MacIntel,109.1703057,97.229,97.649,3,1,0.415,,15,1,151,1,1,2,R,,3,,,,,,,
,,,,,,,,,,1,,2023-09-27_15h43.44.329,Motor_Task,2023.2.2,MacIntel,109.1703057,97.649,98.075,2,1,0.42,,15,2,152,2,1,3,M,,2,,,,,,,
,,,,,,,,,,1,,2023-09-27_15h43.44.329,Motor_Task,2023.2.2,MacIntel,109.1703057,98.076,98.53,3,1,0.453,,15,3,153,3,1,4,R,,3,,,,,,,
,,,,,,,,,,1,,2023-09-27_15h43.44.329,Motor_Task,2023.2.2,MacIntel,109.1703057,98.53,99.015,1,1,0.482,,15,4,154,4,1,5,I,,1,,,,,,,
,,,,,,,,,,1,,2023-09-27_15h43.44.329,Motor_Task,2023.2.2,MacIntel,109.1703057,99.016,99.524,1,1,0.502,,15,5,155,5,1,6,I,,1,,,,,,,
,,,,,,,,,,1,,2023-09-27_15h43.44.329,Motor_Task,2023.2.2,MacIntel,109.1703057,99.524,99.99,3,1,0.463,,15,6,156,6,1,7,R,,3,,,,,,,
,,,,,,,,,,1,,2023-09-27_15h43.44.329,Motor_Task,2023.2.2,MacIntel,109.1703057,99.99,100.557,2,1,0.564,,15,7,157,7,1,8,M,,2,,,,,,,
,,,,,,,,,,1,,2023-09-27_15h43.44.329,Motor_Task,2023.2.2,MacIntel,109.1703057,100.557,101.09,4,1,0.533,,15,8,158,8,1,9,L,,4,,,,,,,
,,,,,,,,,,1,,2023-09-27_15h43.44.329,Motor_Task,2023.2.2,MacIntel,109.1703057,101.091,101.581,1,1,0.484,,15,9,159,9,1,10,I,,1,,,,,,,
,,,,,,,,,,1,,2023-09-27_15h43.44.329,Motor_Task,2023.2.2,MacIntel,109.1703057,101.582,102.165,2,1,0.579,,16,0,160,0,1,1,M,,2,,,,,,,
,,,,,,,,,,1,,2023-09-27_15h43.44.329,Motor_Task,2023.2.2,MacIntel,109.1703057,102.166,102.659,3,1,0.485,,16,1,161,1,1,2,R,,3,,,,,,,
,,,,,,,,,,1,,2023-09-27_15h43.44.329,Motor_Task,2023.2.2,MacIntel,109.1703057,102.659,103.098,2,1,0.437,,16,2,162,2,1,3,M,,2,,,,,,,
,,,,,,,,,,1,,2023-09-27_15h43.44.329,Motor_Task,2023.2.2,MacIntel,109.1703057,103.098,103.539,3,1,0.44,,16,3,163,3,1,4,R,,3,,,,,,,
,,,,,,,,,,1,,2023-09-27_15h43.44.329,Motor_Task,2023.2.2,MacIntel,109.1703057,103.539,104.025,1,1,0.485,,16,4,164,4,1,5,I,,1,,,,,,,
,,,,,,,,,,1,,2023-09-27_15h43.44.329,Motor_Task,2023.2.2,MacIntel,109.1703057,104.025,104.465,1,1,0.438,,16,5,165,5,1,6,I,,1,,,,,,,
,,,,,,,,,,1,,2023-09-27_15h43.44.329,Motor_Task,2023.2.2,MacIntel,109.1703057,104.466,104.948,3,1,0.48,,16,6,166,6,1,7,R,,3,,,,,,,
,,,,,,,,,,1,,2023-09-27_15h43.44.329,Motor_Task,2023.2.2,MacIntel,109.1703057,104.949,105.498,2,1,0.545,,16,7,167,7,1,8,M,,2,,,,,,,
,,,,,,,,,,1,,2023-09-27_15h43.44.329,Motor_Task,2023.2.2,MacIntel,109.1703057,105.499,106.006,4,1,0.502,,16,8,168,8,1,9,L,,4,,,,,,,
,,,,,,,,,,1,,2023-09-27_15h43.44.329,Motor_Task,2023.2.2,MacIntel,109.1703057,106.007,106.54,1,1,0.529,,16,9,169,9,1,10,I,,1,,,,,,,
,,,,,,,,,,1,,2023-09-27_15h43.44.329,Motor_Task,2023.2.2,MacIntel,109.1703057,106.541,107.132,2,1,0.59,,17,0,170,0,1,1,M,,2,,,,,,,
,,,,,,,,,,1,,2023-09-27_15h43.44.329,Motor_Task,2023.2.2,MacIntel,109.1703057,107.132,107.547,3,1,0.41,,17,1,171,1,1,2,R,,3,,,,,,,
,,,,,,,,,,1,,2023-09-27_15h43.44.329,Motor_Task,2023.2.2,MacIntel,109.1703057,107.548,107.94,2,1,0.388,,17,2,172,2,1,3,M,,2,,,,,,,
,,,,,,,,,,1,,2023-09-27_15h43.44.329,Motor_Task,2023.2.2,MacIntel,109.1703057,107.94,108.34,3,1,0.398,,17,3,173,3,1,4,R,,3,,,,,,,
,,,,,,,,,,1,,2023-09-27_15h43.44.329,Motor_Task,2023.2.2,MacIntel,109.1703057,108.34,108.774,1,1,0.433,,17,4,174,4,1,5,I,,1,,,,,,,
,,,,,,,,,,1,,2023-09-27_15h43.44.329,Motor_Task,2023.2.2,MacIntel,109.1703057,108.774,109.256,1,1,0.48,,17,5,175,5,1,6,I,,1,,,,,,,
,,,,,,,,,,1,,2023-09-27_15h43.44.329,Motor_Task,2023.2.2,MacIntel,109.1703057,109.257,109.7,3,1,0.437,,17,6,176,6,1,7,R,,3,,,,,,,
,,,,,,,,,,1,,2023-09-27_15h43.44.329,Motor_Task,2023.2.2,MacIntel,109.1703057,109.701,110.173,2,1,0.468,,17,7,177,7,1,8,M,,2,,,,,,,
,,,,,,,,,,1,,2023-09-27_15h43.44.329,Motor_Task,2023.2.2,MacIntel,109.1703057,110.173,110.607,4,1,0.43,,17,8,178,8,1,9,L,,4,,,,,,,
,,,,,,,,,,1,,2023-09-27_15h43.44.329,Motor_Task,2023.2.2,MacIntel,109.1703057,110.608,111.044,1,1,0.435,,17,9,179,9,1,10,I,,1,,,,,,,
,,,,,,,,,,1,,2023-09-27_15h43.44.329,Motor_Task,2023.2.2,MacIntel,109.1703057,111.044,111.452,1,0,0.408,,18,0,180,0,1,1,M,,2,,,,,,,
,,,,,,,,,,1,,2023-09-27_15h43.44.329,Motor_Task,2023.2.2,MacIntel,109.1703057,111.453,111.892,3,1,0.438,,18,1,181,1,1,2,R,,3,,,,,,,
,,,,,,,,,,1,,2023-09-27_15h43.44.329,Motor_Task,2023.2.2,MacIntel,109.1703057,111.892,112.357,2,1,0.462,,18,2,182,2,1,3,M,,2,,,,,,,
,,,,,,,,,,1,,2023-09-27_15h43.44.329,Motor_Task,2023.2.2,MacIntel,109.1703057,112.358,112.69,3,1,0.33,,18,3,183,3,1,4,R,,3,,,,,,,
,,,,,,,,,,1,,2023-09-27_15h43.44.329,Motor_Task,2023.2.2,MacIntel,109.1703057,112.691,113.157,1,1,0.462,,18,4,184,4,1,5,I,,1,,,,,,,
,,,,,,,,,,1,,2023-09-27_15h43.44.329,Motor_Task,2023.2.2,MacIntel,109.1703057,113.157,113.656,1,1,0.497,,18,5,185,5,1,6,I,,1,,,,,,,
,,,,,,,,,,1,,2023-09-27_15h43.44.329,Motor_Task,2023.2.2,MacIntel,109.1703057,113.656,114.123,3,1,0.465,,18,6,186,6,1,7,R,,3,,,,,,,
,,,,,,,,,,1,,2023-09-27_15h43.44.329,Motor_Task,2023.2.2,MacIntel,109.1703057,114.123,114.556,2,1,0.428,,18,7,187,7,1,8,M,,2,,,,,,,
,,,,,,,,,,1,,2023-09-27_15h43.44.329,Motor_Task,2023.2.2,MacIntel,109.1703057,114.556,115.008,4,1,0.446,,18,8,188,8,1,9,L,,4,,,,,,,
,,,,,,,,,,1,,2023-09-27_15h43.44.329,Motor_Task,2023.2.2,MacIntel,109.1703057,115.008,115.418,1,1,0.409,,18,9,189,9,1,10,I,,1,,,,,,,
,,,,,,,,,,1,,2023-09-27_15h43.44.329,Motor_Task,2023.2.2,MacIntel,109.1703057,115.418,115.923,2,1,0.502,,19,0,190,0,1,1,M,,2,,,,,,,
,,,,,,,,,,1,,2023-09-27_15h43.44.329,Motor_Task,2023.2.2,MacIntel,109.1703057,115.923,116.349,3,1,0.425,,19,1,191,1,1,2,R,,3,,,,,,,
,,,,,,,,,,1,,2023-09-27_15h43.44.329,Motor_Task,2023.2.2,MacIntel,109.1703057,116.349,116.724,2,1,0.374,,19,2,192,2,1,3,M,,2,,,,,,,
,,,,,,,,,,1,,2023-09-27_15h43.44.329,Motor_Task,2023.2.2,MacIntel,109.1703057,116.725,117.099,3,1,0.369,,19,3,193,3,1,4,R,,3,,,,,,,
,,,,,,,,,,1,,2023-09-27_15h43.44.329,Motor_Task,2023.2.2,MacIntel,109.1703057,117.099,117.547,1,1,0.447,,19,4,194,4,1,5,I,,1,,,,,,,
,,,,,,,,,,1,,2023-09-27_15h43.44.329,Motor_Task,2023.2.2,MacIntel,109.1703057,117.548,118.056,1,1,0.505,,19,5,195,5,1,6,I,,1,,,,,,,
,,,,,,,,,,1,,2023-09-27_15h43.44.329,Motor_Task,2023.2.2,MacIntel,109.1703057,118.056,118.489,3,1,0.431,,19,6,196,6,1,7,R,,3,,,,,,,
,,,,,,,,,,1,,2023-09-27_15h43.44.329,Motor_Task,2023.2.2,MacIntel,109.1703057,118.49,118.973,2,1,0.481,,19,7,197,7,1,8,M,,2,,,,,,,
,,,,,,,,,,1,,2023-09-27_15h43.44.329,Motor_Task,2023.2.2,MacIntel,109.1703057,118.973,119.323,4,1,0.347,,19,8,198,8,1,9,L,,4,,,,,,,
,,,,,,,,,,1,,2023-09-27_15h43.44.329,Motor_Task,2023.2.2,MacIntel,109.1703057,119.323,119.856,1,1,0.529,,19,9,199,9,1,10,I,,1,,,,,,,
,,,,,,,,,,1,,2023-09-27_15h43.44.329,Motor_Task,2023.2.2,MacIntel,109.1703057,119.869,120.389,1,1,0.518,,,,,,,6,I,,1,0,0,0,5,1,,
,,,,,,,,,,1,,2023-09-27_15h43.44.329,Motor_Task,2023.2.2,MacIntel,109.1703057,120.39,120.889,2,1,0.494,,,,,,,8,M,,2,0,1,1,7,1,,
,,,,,,,,,,1,,2023-09-27_15h43.44.329,Motor_Task,2023.2.2,MacIntel,109.1703057,120.89,121.473,4,1,0.58,,,,,,,9,L,,4,0,2,2,8,1,,
,,,,,,,,,,1,,2023-09-27_15h43.44.329,Motor_Task,2023.2.2,MacIntel,109.1703057,121.474,121.902,2,1,0.427,,,,,,,3,M,,2,0,3,3,2,1,,
,,,,,,,,,,1,,2023-09-27_15h43.44.329,Motor_Task,2023.2.2,MacIntel,109.1703057,121.902,122.499,1,1,0.592,,,,,,,10,I,,1,0,4,4,9,1,,
,,,,,,,,,,1,,2023-09-27_15h43.44.329,Motor_Task,2023.2.2,MacIntel,109.1703057,122.5,122.964,2,1,0.462,,,,,,,1,M,,2,0,5,5,0,1,,
,,,,,,,,,,1,,2023-09-27_15h43.44.329,Motor_Task,2023.2.2,MacIntel,109.1703057,122.965,123.431,3,1,0.46,,,,,,,4,R,,3,0,6,6,3,1,,
,,,,,,,,,,1,,2023-09-27_15h43.44.329,Motor_Task,2023.2.2,MacIntel,109.1703057,123.432,123.705,2,0,0.269,,,,,,,2,R,,3,0,7,7,1,1,,
,,,,,,,,,,1,,2023-09-27_15h43.44.329,Motor_Task,2023.2.2,MacIntel,109.1703057,123.706,124.423,1,1,0.713,,,,,,,5,I,,1,0,8,8,4,1,,
,,,,,,,,,,1,,2023-09-27_15h43.44.329,Motor_Task,2023.2.2,MacIntel,109.1703057,124.423,124.926,3,1,0.501,,,,,,,7,R,,3,0,9,9,6,1,,
,,,,,,,,,,1,,2023-09-27_15h43.44.329,Motor_Task,2023.2.2,MacIntel,109.1703057,124.927,125.435,4,1,0.508,,,,,,,9,L,,4,1,0,10,8,1,,
,,,,,,,,,,1,,2023-09-27_15h43.44.329,Motor_Task,2023.2.2,MacIntel,109.1703057,125.436,125.948,1,1,0.51,,,,,,,6,I,,1,1,1,11,5,1,,
,,,,,,,,,,1,,2023-09-27_15h43.44.329,Motor_Task,2023.2.2,MacIntel,109.1703057,125.948,126.514,3,1,0.563,,,,,,,4,R,,3,1,2,12,3,1,,
,,,,,,,,,,1,,2023-09-27_15h43.44.329,Motor_Task,2023.2.2,MacIntel,109.1703057,126.515,127.048,3,1,0.529,,,,,,,7,R,,3,1,3,13,6,1,,
,,,,,,,,,,1,,2023-09-27_15h43.44.329,Motor_Task,2023.2.2,MacIntel,109.1703057,127.049,127.592,1,1,0.542,,,,,,,10,I,,1,1,4,14,9,1,,
,,,,,,,,,,1,,2023-09-27_15h43.44.329,Motor_Task,2023.2.2,MacIntel,109.1703057,127.592,128.223,2,1,0.631,,,,,,,8,M,,2,1,5,15,7,1,,
,,,,,,,,,,1,,2023-09-27_15h43.44.329,Motor_Task,2023.2.2,MacIntel,109.1703057,128.224,128.756,2,1,0.529,,,,,,,3,M,,2,1,6,16,2,1,,
,,,,,,,,,,1,,2023-09-27_15h43.44.329,Motor_Task,2023.2.2,MacIntel,109.1703057,128.757,129.256,2,1,0.496,,,,,,,1,M,,2,1,7,17,0,1,,
,,,,,,,,,,1,,2023-09-27_15h43.44.329,Motor_Task,2023.2.2,MacIntel,109.1703057,129.257,129.832,3,1,0.572,,,,,,,2,R,,3,1,8,18,1,1,,
,,,,,,,,,,1,,2023-09-27_15h43.44.329,Motor_Task,2023.2.2,MacIntel,109.1703057,129.834,130.332,1,1,0.492,,,,,,,5,I,,1,1,9,19,4,1,,
,,,,,,,,,,1,,2023-09-27_15h43.44.329,Motor_Task,2023.2.2,MacIntel,109.1703057,130.332,130.99,4,1,0.657,,,,,,,9,L,,4,2,0,20,8,1,,
,,,,,,,,,,1,,2023-09-27_15h43.44.329,Motor_Task,2023.2.2,MacIntel,109.1703057,130.991,131.566,4,0,0.571,,,,,,,2,R,,3,2,1,21,1,1,,
,,,,,,,,,,1,,2023-09-27_15h43.44.329,Motor_Task,2023.2.2,MacIntel,109.1703057,131.567,131.856,3,0,0.285,,,,,,,10,I,,1,2,2,22,9,1,,
,,,,,,,,,,1,,2023-09-27_15h43.44.329,Motor_Task,2023.2.2,MacIntel,109.1703057,131.856,132.351,1,1,0.494,,,,,,,5,I,,1,2,3,23,4,1,,
,,,,,,,,,,1,,2023-09-27_15h43.44.329,Motor_Task,2023.2.2,MacIntel,109.1703057,132.352,132.99,1,1,0.634,,,,,,,6,I,,1,2,4,24,5,1,,
,,,,,,,,,,1,,2023-09-27_15h43.44.329,Motor_Task,2023.2.2,MacIntel,109.1703057,132.99,133.473,2,1,0.477,,,,,,,8,M,,2,2,5,25,7,1,,
,,,,,,,,,,1,,2023-09-27_15h43.44.329,Motor_Task,2023.2.2,MacIntel,109.1703057,133.473,133.998,2,1,0.519,,,,,,,3,M,,2,2,6,26,2,1,,
,,,,,,,,,,1,,2023-09-27_15h43.44.329,Motor_Task,2023.2.2,MacIntel,109.1703057,134,134.564,2,0,0.562,,,,,,,7,R,,3,2,7,27,6,1,,
,,,,,,,,,,1,,2023-09-27_15h43.44.329,Motor_Task,2023.2.2,MacIntel,109.1703057,134.565,134.665,3,0,0.097,,,,,,,1,M,,2,2,8,28,0,1,,
,,,,,,,,,,1,,2023-09-27_15h43.44.329,Motor_Task,2023.2.2,MacIntel,109.1703057,134.666,135.206,3,1,0.537,,,,,,,4,R,,3,2,9,29,3,1,,
,,,,,,,,,,1,,2023-09-27_15h43.44.329,Motor_Task,2023.2.2,MacIntel,109.1703057,135.207,135.789,2,1,0.577,,,,,,,3,M,,2,3,0,30,2,1,,
,,,,,,,,,,1,,2023-09-27_15h43.44.329,Motor_Task,2023.2.2,MacIntel,109.1703057,135.79,136.298,3,1,0.508,,,,,,,4,R,,3,3,1,31,3,1,,
,,,,,,,,,,1,,2023-09-27_15h43.44.329,Motor_Task,2023.2.2,MacIntel,109.1703057,136.298,136.731,2,1,0.431,,,,,,,8,M,,2,3,2,32,7,1,,
,,,,,,,,,,1,,2023-09-27_15h43.44.329,Motor_Task,2023.2.2,MacIntel,109.1703057,136.731,137.131,3,1,0.399,,,,,,,2,R,,3,3,3,33,1,1,,
,,,,,,,,,,1,,2023-09-27_15h43.44.329,Motor_Task,2023.2.2,MacIntel,109.1703057,137.131,137.755,4,1,0.623,,,,,,,9,L,,4,3,4,34,8,1,,
,,,,,,,,,,1,,2023-09-27_15h43.44.329,Motor_Task,2023.2.2,MacIntel,109.1703057,137.756,138.297,2,1,0.541,,,,,,,1,M,,2,3,5,35,0,1,,
,,,,,,,,,,1,,2023-09-27_15h43.44.329,Motor_Task,2023.2.2,MacIntel,109.1703057,138.298,138.947,1,1,0.648,,,,,,,6,I,,1,3,6,36,5,1,,
,,,,,,,,,,1,,2023-09-27_15h43.44.329,Motor_Task,2023.2.2,MacIntel,109.1703057,138.948,139.498,2,0,0.549,,,,,,,7,R,,3,3,7,37,6,1,,
,,,,,,,,,,1,,2023-09-27_15h43.44.329,Motor_Task,2023.2.2,MacIntel,109.1703057,139.498,139.625,3,0,0.126,,,,,,,10,I,,1,3,8,38,9,1,,
,,,,,,,,,,1,,2023-09-27_15h43.44.329,Motor_Task,2023.2.2,MacIntel,109.1703057,139.625,140.166,1,1,0.534,,,,,,,5,I,,1,3,9,39,4,1,,
,,,,,,,,,,1,,2023-09-27_15h43.44.329,Motor_Task,2023.2.2,MacIntel,109.1703057,140.167,140.739,2,1,0.571,,,,,,,1,M,,2,4,0,40,0,1,,
,,,,,,,,,,1,,2023-09-27_15h43.44.329,Motor_Task,2023.2.2,MacIntel,109.1703057,140.74,141.239,2,1,0.494,,,,,,,8,M,,2,4,1,41,7,1,,
,,,,,,,,,,1,,2023-09-27_15h43.44.329,Motor_Task,2023.2.2,MacIntel,109.1703057,141.24,141.832,1,1,0.589,,,,,,,6,I,,1,4,2,42,5,1,,
,,,,,,,,,,1,,2023-09-27_15h43.44.329,Motor_Task,2023.2.2,MacIntel,109.1703057,141.832,142.373,4,1,0.54,,,,,,,9,L,,4,4,3,43,8,1,,
,,,,,,,,,,1,,2023-09-27_15h43.44.329,Motor_Task,2023.2.2,MacIntel,109.1703057,142.373,142.99,2,0,0.611,,,,,,,4,R,,3,4,4,44,3,1,,
,,,,,,,,,,1,,2023-09-27_15h43.44.329,Motor_Task,2023.2.2,MacIntel,109.1703057,142.991,143.122,3,0,0.129,,,,,,,3,M,,2,4,5,45,2,1,,
,,,,,,,,,,1,,2023-09-27_15h43.44.329,Motor_Task,2023.2.2,MacIntel,109.1703057,143.122,143.656,3,1,0.529,,,,,,,7,R,,3,4,6,46,6,1,,
,,,,,,,,,,1,,2023-09-27_15h43.44.329,Motor_Task,2023.2.2,MacIntel,109.1703057,143.656,144.232,1,1,0.571,,,,,,,5,I,,1,4,7,47,4,1,,
,,,,,,,,,,1,,2023-09-27_15h43.44.329,Motor_Task,2023.2.2,MacIntel,109.1703057,144.233,144.759,3,1,0.518,,,,,,,2,R,,3,4,8,48,1,1,,
,,,,,,,,,,1,,2023-09-27_15h43.44.329,Motor_Task,2023.2.2,MacIntel,109.1703057,144.759,145.239,1,1,0.477,,,,,,,10,I,,1,4,9,49,9,1,,
,,,,,,,,,,1,,2023-09-27_15h43.44.329,Motor_Task,2023.2.2,MacIntel,109.1703057,,,,,,,,,,,,,,,,,,,,,145.239,149.241