Trigger.started,Trigger.stopped,key_resp_4.keys,key_resp_4.rt,key_resp_4.duration,mouse.x,mouse.y,mouse.leftButton,mouse.midButton,mouse.rightButton,Session,Subject,date,expName,psychopyVersion,OS,frameRate,complex_block.started,complex_block.stopped,key_resp.keys,key_resp.corr,key_resp.rt,key_resp.duration,complex_block_loop.thisRepN,complex_block_loop.thisTrialN,complex_block_loop.thisN,complex_block_loop.thisIndex,complex_block_loop.ran,trial,finger,markerPos,correctResp,new_block_loop.thisRepN,new_block_loop.thisTrialN,new_block_loop.thisN,new_block_loop.thisIndex,new_block_loop.ran,endBuffer.started,endBuffer.stopped
0.0004,14.7601,1,14.6926,,0.008885362,-0.029778103,0,0,0,1,,2023-09-27_15h43.26.517,Motor_Task,2023.2.2,MacIntel,60.0024001,,,,,,,,,,,,,,,,,,,,,,
,,,,,,,,,,1,,2023-09-27_15h43.26.517,Motor_Task,2023.2.2,MacIntel,60.0024001,14.7814,15.4904,2,1,0.7062,,0,0,0,0,1,1,M,,2,,,,,,,
,,,,,,,,,,1,,2023-09-27_15h43.26.517,Motor_Task,2023.2.2,MacIntel,60.0024001,15.4907,16.0569,3,1,0.5632,,0,1,1,1,1,2,R,,3,,,,,,,
,,,,,,,,,,1,,2023-09-27_15h43.26.517,Motor_Task,2023.2.2,MacIntel,60.0024001,16.0571,16.6597,2,1,0.6009,,0,2,2,2,1,3,M,,2,,,,,,,
,,,,,,,,,,1,,2023-09-27_15h43.26.517,Motor_Task,2023.2.2,MacIntel,60.0024001,16.6601,17.2235,3,1,0.5604,,0,3,3,3,1,4,R,,3,,,,,,,
,,,,,,,,,,1,,2023-09-27_15h43.26.517,Motor_Task,2023.2.2,MacIntel,60.0024001,17.2238,17.7736,1,1,0.5466,,0,4,4,4,1,5,I,,1,,,,,,,
,,,,,,,,,,1,,2023-09-27_15h43.26.517,Motor_Task,2023.2.2,MacIntel,60.0024001,17.7737,18.3404,1,1,0.5634,,0,5,5,5,1,6,I,,1,,,,,,,
,,,,,,,,,,1,,2023-09-27_15h43.26.517,Motor_Task,2023.2.2,MacIntel,60.0024001,18.3407,18.8572,3,1,0.5131,,0,6,6,6,1,7,R,,3,,,,,,,
,,,,,,,,,,1,,2023-09-27_15h43.26.517,Motor_Task,2023.2.2,MacIntel,60.0024001,18.8574,19.3901,2,1,0.5299,,0,7,7,7,1,8,M,,2,,,,,,,
,,,,,,,,,,1,,2023-09-27_15h43.26.517,Motor_Task,2023.2.2,MacIntel,60.0024001,19.3903,20.0261,4,1,0.6302,,0,8,8,8,1,9,L,,4,,,,,,,
,,,,,,,,,,1,,2023-09-27_15h43.26.517,Motor_Task,2023.2.2,MacIntel,60.0024001,20.0264,20.5594,1,1,0.5315,,0,9,9,9,1,10,I,,1,,,,,,,
,,,,,,,,,,1,,2023-09-27_15h43.26.517,Motor_Task,2023.2.2,MacIntel,60.0024001,20.5598,21.0573,2,1,0.4941,,1,0,10,0,1,1,M,,2,,,,,,,
,,,,,,,,,,1,,2023-09-27_15h43.26.517,Motor_Task,2023.2.2,MacIntel,60.0024001,21.0576,21.5242,3,1,0.4625,,1,1,11,1,1,2,R,,3,,,,,,,
,,,,,,,,,,1,,2023-09-27_15h43.26.517,Motor_Task,2023.2.2,MacIntel,60.0024001,21.5246,22.0397,2,1,0.5113,,1,2,12,2,1,3,M,,2,,,,,,,
,,,,,,,,,,1,,2023-09-27_15h43.26.517,Motor_Task,2023.2.2,MacIntel,60.0024001,22.0399,22.5416,3,1,0.5,,1,3,13,3,1,4,R,,3,,,,,,,
,,,,,,,,,,1,,2023-09-27_15h43.26.517,Motor_Task,2023.2.2,MacIntel,60.0024001,22.5422,23.0568,1,1,0.5119,,1,4,14,4,1,5,I,,1,,,,,,,
,,,,,,,,,,1,,2023-09-27_15h43.26.517,Motor_Task,2023.2.2,MacIntel,60.0024001,23.057,23.573,1,1,0.5154,,1,5,15,5,1,6,I,,1,,,,,,,
,,,,,,,,,,1,,2023-09-27_15h43.26.517,Motor_Task,2023.2.2,MacIntel,60.0024001,23.5733,24.076,3,1,0.497,,1,6,16,6,1,7,R,,3,,,,,,,
,,,,,,,,,,1,,2023-09-27_15h43.26.517,Motor_Task,2023.2.2,MacIntel,60.0024001,24.0763,24.5395,2,1,0.4608,,1,7,17,7,1,8,M,,2,,,,,,,
,,,,,,,,,,1,,2023-09-27_15h43.26.517,Motor_Task,2023.2.2,MacIntel,60.0024001,24.54,25.3068,4,1,0.7636,,1,8,18,8,1,9,L,,4,,,,,,,
,,,,,,,,,,1,,2023-09-27_15h43.26.517,Motor_Task,2023.2.2,MacIntel,60.0024001,25.307,25.7998,1,1,0.4924,,1,9,19,9,1,10,I,,1,,,,,,,
,,,,,,,,,,1,,2023-09-27_15h43.26.517,Motor_Task,2023.2.2,MacIntel,60.0024001,25.8,26.2921,2,1,0.4904,,2,0,20,0,1,1,M,,2,,,,,,,
,,,,,,,,,,1,,2023-09-27_15h43.26.517,Motor_Task,2023.2.2,MacIntel,60.0024001,26.2923,26.7563,3,1,0.4626,,2,1,21,1,1,2,R,,3,,,,,,,
,,,,,,,,,,1,,2023-09-27_15h43.26.517,Motor_Task,2023.2.2,MacIntel,60.0024001,26.7565,27.19,2,1,0.4313,,2,2,22,2,1,3,M,,2,,,,,,,
,,,,,,,,,,1,,2023-09-27_15h43.26.517,Motor_Task,2023.2.2,MacIntel,60.0024001,27.1902,27.6567,3,1,0.4635,,2,3,23,3,1,4,R,,3,,,,,,,
,,,,,,,,,,1,,2023-09-27_15h43.26.517,Motor_Task,2023.2.2,MacIntel,60.0024001,27.6571,28.1233,1,1,0.4643,,2,4,24,4,1,5,I,,1,,,,,,,
,,,,,,,,,,1,,2023-09-27_15h43.26.517,Motor_Task,2023.2.2,MacIntel,60.0024001,28.1236,28.74,1,1,0.6139,,2,5,25,5,1,6,I,,1,,,,,,,
,,,,,,,,,,1,,2023-09-27_15h43.26.517,Motor_Task,2023.2.2,MacIntel,60.0024001,28.7403,29.24,3,1,0.4971,,2,6,26,6,1,7,R,,3,,,,,,,
,,,,,,,,,,1,,2023-09-27_15h43.26.517,Motor_Task,2023.2.2,MacIntel,60.0024001,29.2403,29.7242,2,1,0.4836,,2,7,27,7,1,8,M,,2,,,,,,,
,,,,,,,,,,1,,2023-09-27_15h43.26.517,Motor_Task,2023.2.2,MacIntel,60.0024001,29.7244,30.2901,4,1,0.5624,,2,8,28,8,1,9,L,,4,,,,,,,
,,,,,,,,,,1,,2023-09-27_15h43.26.517,Motor_Task,2023.2.2,MacIntel,60.0024001,30.2903,30.79,1,1,0.4969,,2,9,29,9,1,10,I,,1,,,,,,,
,,,,,,,,,,1,,2023-09-27_15h43.26.517,Motor_Task,2023.2.2,MacIntel,60.0024001,30.7901,31.3733,2,1,0.5805,,3,0,30,0,1,1,M,,2,,,,,,,
,,,,,,,,,,1,,2023-09-27_15h43.26.517,Motor_Task,2023.2.2,MacIntel,60.0024001,31.3735,31.8394,3,1,0.464,,3,1,31,1,1,2,R,,3,,,,,,,
,,,,,,,,,,1,,2023-09-27_15h43.26.517,Motor_Task,2023.2.2,MacIntel,60.0024001,31.8396,32.4566,2,1,0.6134,,3,2,32,2,1,3,M,,2,,,,,,,
,,,,,,,,,,1,,2023-09-27_15h43.26.517,Motor_Task,2023.2.2,MacIntel,60.0024001,32.4568,33.0233,3,1,0.5636,,3,3,33,3,1,4,R,,3,,,,,,,
,,,,,,,,,,1,,2023-09-27_15h43.26.517,Motor_Task,2023.2.2,MacIntel,60.0024001,33.0236,33.64,1,1,0.6134,,3,4,34,4,1,5,I,,1,,,,,,,
,,,,,,,,,,1,,2023-09-27_15h43.26.517,Motor_Task,2023.2.2,MacIntel,60.0024001,33.6403,34.2065,1,1,0.5634,,3,5,35,5,1,6,I,,1,,,,,,,
,,,,,,,,,,1,,2023-09-27_15h43.26.517,Motor_Task,2023.2.2,MacIntel,60.0024001,34.2068,34.74,3,1,0.5303,,3,6,36,6,1,7,R,,3,,,,,,,
,,,,,,,,,,1,,2023-09-27_15h43.26.517,Motor_Task,2023.2.2,MacIntel,60.0024001,34.7402,35.2399,2,1,0.4973,,3,7,37,7,1,8,M,,2,,,,,,,
,,,,,,,,,,1,,2023-09-27_15h43.26.517,Motor_Task,2023.2.2,MacIntel,60.0024001,35.2401,35.7565,4,1,0.5136,,3,8,38,8,1,9,L,,4,,,,,,,
,,,,,,,,,,1,,2023-09-27_15h43.26.517,Motor_Task,2023.2.2,MacIntel,60.0024001,35.7568,36.2733,1,1,0.5136,,3,9,39,9,1,10,I,,1,,,,,,,
,,,,,,,,,,1,,2023-09-27_15h43.26.517,Motor_Task,2023.2.2,MacIntel,60.0024001,36.2735,36.8566,2,1,0.5805,,4,0,40,0,1,1,M,,2,,,,,,,
,,,,,,,,,,1,,2023-09-27_15h43.26.517,Motor_Task,2023.2.2,MacIntel,60.0024001,36.8569,37.3234,3,1,0.4657,,4,1,41,1,1,2,R,,3,,,,,,,
,,,,,,,,,,1,,2023-09-27_15h43.26.517,Motor_Task,2023.2.2,MacIntel,60.0024001,37.3236,37.8899,2,1,0.5641,,4,2,42,2,1,3,M,,2,,,,,,,
,,,,,,,,,,1,,2023-09-27_15h43.26.517,Motor_Task,2023.2.2,MacIntel,60.0024001,37.8901,38.3917,3,1,0.4977,,4,3,43,3,1,4,R,,3,,,,,,,
,,,,,,,,,,1,,2023-09-27_15h43.26.517,Motor_Task,2023.2.2,MacIntel,60.0024001,38.3922,38.8899,1,1,0.4947,,4,4,44,4,1,5,I,,1,,,,,,,
,,,,,,,,,,1,,2023-09-27_15h43.26.517,Motor_Task,2023.2.2,MacIntel,60.0024001,38.89,39.5062,1,1,0.6146,,4,5,45,5,1,6,I,,1,,,,,,,
,,,,,,,,,,1,,2023-09-27_15h43.26.517,Motor_Task,2023.2.2,MacIntel,60.0024001,39.5065,40.0574,3,1,0.5462,,4,6,46,6,1,7,R,,3,,,,,,,
,,,,,,,,,,1,,2023-09-27_15h43.26.517,Motor_Task,2023.2.2,MacIntel,60.0024001,40.0579,40.5233,2,1,0.4615,,4,7,47,7,1,8,M,,2,,,,,,,
,,,,,,,,,,1,,2023-09-27_15h43.26.517,Motor_Task,2023.2.2,MacIntel,60.0024001,40.5235,41.0731,4,1,0.5469,,4,8,48,8,1,9,L,,4,,,,,,,
,,,,,,,,,,1,,2023-09-27_15h43.26.517,Motor_Task,2023.2.2,MacIntel,60.0024001,41.0734,41.5731,1,1,0.4968,,4,9,49,9,1,10,I,,1,,,,,,,
,,,,,,,,,,1,,2023-09-27_15h43.26.517,Motor_Task,2023.2.2,MacIntel,60.0024001,41.5733,42.1228,2,1,0.547,,5,0,50,0,1,1,M,,2,,,,,,,
,,,,,,,,,,1,,2023-09-27_15h43.26.517,Motor_Task,2023.2.2,MacIntel,60.0024001,42.123,42.6922,3,1,0.567,,5,1,51,1,1,2,R,,3,,,,,,,
,,,,,,,,,,1,,2023-09-27_15h43.26.517,Motor_Task,2023.2.2,MacIntel,60.0024001,42.6925,43.2067,2,1,0.5115,,5,2,52,2,1,3,M,,2,,,,,,,
,,,,,,,,,,1,,2023-09-27_15h43.26.517,Motor_Task,2023.2.2,MacIntel,60.0024001,43.207,43.7399,3,1,0.5293,,5,3,53,3,1,4,R,,3,,,,,,,
,,,,,,,,,,1,,2023-09-27_15h43.26.517,Motor_Task,2023.2.2,MacIntel,60.0024001,43.7407,44.2565,1,1,0.5122,,5,4,54,4,1,5,I,,1,,,,,,,
,,,,,,,,,,1,,2023-09-27_15h43.26.517,Motor_Task,2023.2.2,MacIntel,60.0024001,44.2567,44.8064,1,1,0.5469,,5,5,55,5,1,6,I,,1,,,,,,,
,,,,,,,,,,1,,2023-09-27_15h43.26.517,Motor_Task,2023.2.2,MacIntel,60.0024001,44.8067,45.3393,3,1,0.5306,,5,6,56,6,1,7,R,,3,,,,,,,
,,,,,,,,,,1,,2023-09-27_15h43.26.517,Motor_Task,2023.2.2,MacIntel,60.0024001,45.3396,45.8066,2,1,0.4661,,5,7,57,7,1,8,M,,2,,,,,,,
,,,,,,,,,,1,,2023-09-27_15h43.26.517,Motor_Task,2023.2.2,MacIntel,60.0024001,45.8068,46.4231,4,1,0.6136,,5,8,58,8,1,9,L,,4,,,,,,,
,,,,,,,,,,1,,2023-09-27_15h43.26.517,Motor_Task,2023.2.2,MacIntel,60.0024001,46.4233,46.9069,1,1,0.4803,,5,9,59,9,1,10,I,,1,,,,,,,
,,,,,,,,,,1,,2023-09-27_15h43.26.517,Motor_Task,2023.2.2,MacIntel,60.0024001,46.9071,47.4065,2,1,0.4968,,6,0,60,0,1,1,M,,2,,,,,,,
,,,,,,,,,,1,,2023-09-27_15h43.26.517,Motor_Task,2023.2.2,MacIntel,60.0024001,47.4068,47.907,3,1,0.4973,,6,1,61,1,1,2,R,,3,,,,,,,
,,,,,,,,,,1,,2023-09-27_15h43.26.517,Motor_Task,2023.2.2,MacIntel,60.0024001,47.9072,48.406,2,1,0.4967,,6,2,62,2,1,3,M,,2,,,,,,,
,,,,,,,,,,1,,2023-09-27_15h43.26.517,Motor_Task,2023.2.2,MacIntel,60.0024001,48.4062,48.9563,3,1,0.5473,,6,3,63,3,1,4,R,,3,,,,,,,
,,,,,,,,,,1,,2023-09-27_15h43.26.517,Motor_Task,2023.2.2,MacIntel,60.0024001,48.9566,49.5092,1,1,0.5503,,6,4,64,4,1,5,I,,1,,,,,,,
,,,,,,,,,,1,,2023-09-27_15h43.26.517,Motor_Task,2023.2.2,MacIntel,60.0024001,49.5095,50.0398,1,1,0.5273,,6,5,65,5,1,6,I,,1,,,,,,,
,,,,,,,,,,1,,2023-09-27_15h43.26.517,Motor_Task,2023.2.2,MacIntel,60.0024001,50.04,50.5402,3,1,0.4978,,6,6,66,6,1,7,R,,3,,,,,,,
,,,,,,,,,,1,,2023-09-27_15h43.26.517,Motor_Task,2023.2.2,MacIntel,60.0024001,50.5404,51.023,2,1,0.4798,,6,7,67,7,1,8,M,,2,,,,,,,
,,,,,,,,,,1,,2023-09-27_15h43.26.517,Motor_Task,2023.2.2,MacIntel,60.0024001,51.0234,51.5397,4,1,0.5141,,6,8,68,8,1,9,L,,4,,,,,,,
,,,,,,,,,,1,,2023-09-27_15h43.26.517,Motor_Task,2023.2.2,MacIntel,60.0024001,51.5399,52.0395,1,1,0.4973,,6,9,69,9,1,10,I,,1,,,,,,,
,,,,,,,,,,1,,2023-09-27_15h43.26.517,Motor_Task,2023.2.2,MacIntel,60.0024001,52.0397,52.5748,2,1,0.5305,,7,0,70,0,1,1,M,,2,,,,,,,
,,,,,,,,,,1,,2023-09-27_15h43.26.517,Motor_Task,2023.2.2,MacIntel,60.0024001,52.5753,53.0577,3,1,0.4779,,7,1,71,1,1,2,R,,3,,,,,,,
,,,,,,,,,,1,,2023-09-27_15h43.26.517,Motor_Task,2023.2.2,MacIntel,60.0024001,53.0583,53.6729,2,1,0.6118,,7,2,72,2,1,3,M,,2,,,,,,,
,,,,,,,,,,1,,2023-09-27_15h43.26.517,Motor_Task,2023.2.2,MacIntel,60.0024001,53.6732,54.273,3,1,0.5968,,7,3,73,3,1,4,R,,3,,,,,,,
,,,,,,,,,,1,,2023-09-27_15h43.26.517,Motor_Task,2023.2.2,MacIntel,60.0024001,54.2732,54.7741,1,1,0.4965,,7,4,74,4,1,5,I,,1,,,,,,,
,,,,,,,,,,1,,2023-09-27_15h43.26.517,Motor_Task,2023.2.2,MacIntel,60.0024001,54.7744,55.3893,1,1,0.6117,,7,5,75,5,1,6,I,,1,,,,,,,
,,,,,,,,,,1,,2023-09-27_15h43.26.517,Motor_Task,2023.2.2,MacIntel,60.0024001,55.3895,55.9396,3,1,0.5471,,7,6,76,6,1,7,R,,3,,,,,,,
,,,,,,,,,,1,,2023-09-27_15h43.26.517,Motor_Task,2023.2.2,MacIntel,60.0024001,55.9398,56.473,2,1,0.5305,,7,7,77,7,1,8,M,,2,,,,,,,
,,,,,,,,,,1,,2023-09-27_15h43.26.517,Motor_Task,2023.2.2,MacIntel,60.0024001,56.4733,57.0062,4,1,0.5301,,7,8,78,8,1,9,L,,4,,,,,,,
,,,,,,,,,,1,,2023-09-27_15h43.26.517,Motor_Task,2023.2.2,MacIntel,60.0024001,57.0065,57.5063,1,1,0.4971,,7,9,79,9,1,10,I,,1,,,,,,,
,,,,,,,,,,1,,2023-09-27_15h43.26.517,Motor_Task,2023.2.2,MacIntel,60.0024001,57.5065,58.1899,2,1,0.6816,,8,0,80,0,1,1,M,,2,,,,,,,
,,,,,,,,,,1,,2023-09-27_15h43.26.517,Motor_Task,2023.2.2,MacIntel,60.0024001,58.1901,58.6896,3,1,0.4971,,8,1,81,1,1,2,R,,3,,,,,,,
,,,,,,,,,,1,,2023-09-27_15h43.26.517,Motor_Task,2023.2.2,MacIntel,60.0024001,58.6899,59.2397,2,1,0.5469,,8,2,82,2,1,3,M,,2,,,,,,,
,,,,,,,,,,1,,2023-09-27_15h43.26.517,Motor_Task,2023.2.2,MacIntel,60.0024001,59.2399,59.7396,3,1,0.4969,,8,3,83,3,1,4,R,,3,,,,,,,
,,,,,,,,,,1,,2023-09-27_15h43.26.517,Motor_Task,2023.2.2,MacIntel,60.0024001,59.7398,60.2229,1,1,0.4797,,8,4,84,4,1,5,I,,1,,,,,,,
,,,,,,,,,,1,,2023-09-27_15h43.26.517,Motor_Task,2023.2.2,MacIntel,60.0024001,60.2232,60.7723,1,1,0.548,,8,5,85,5,1,6,I,,1,,,,,,,
,,,,,,,,,,1,,2023-09-27_15h43.26.517,Motor_Task,2023.2.2,MacIntel,60.0024001,60.7724,61.2892,3,1,0.5141,,8,6,86,6,1,7,R,,3,,,,,,,
,,,,,,,,,,1,,2023-09-27_15h43.26.517,Motor_Task,2023.2.2,MacIntel,60.0024001,61.2896,61.7755,2,1,0.4802,,8,7,87,7,1,8,M,,2,,,,,,,
,,,,,,,,,,1,,2023-09-27_15h43.26.517,Motor_Task,2023.2.2,MacIntel,60.0024001,61.7758,62.3059,4,1,0.5277,,8,8,88,8,1,9,L,,4,,,,,,,
,,,,,,,,,,1,,2023-09-27_15h43.26.517,Motor_Task,2023.2.2,MacIntel,60.0024001,62.3062,62.7893,1,1,0.4795,,8,9,89,9,1,10,I,,1,,,,,,,
,,,,,,,,,,1,,2023-09-27_15h43.26.517,Motor_Task,2023.2.2,MacIntel,60.0024001,62.7895,63.3226,2,1,0.5297,,9,0,90,0,1,1,M,,2,,,,,,,
,,,,,,,,,,1,,2023-09-27_15h43.26.517,Motor_Task,2023.2.2,MacIntel,60.0024001,63.3228,63.7892,3,1,0.4635,,9,1,91,1,1,2,R,,3,,,,,,,
,,,,,,,,,,1,,2023-09-27_15h43.26.517,Motor_Task,2023.2.2,MacIntel,60.0024001,63.7894,64.3062,2,1,0.5151,,9,2,92,2,1,3,M,,2,,,,,,,
,,,,,,,,,,1,,2023-09-27_15h43.26.517,Motor_Task,2023.2.2,MacIntel,60.0024001,64.3065,64.8242,3,1,0.5132,,9,3,93,3,1,4,R,,3,,,,,,,
,,,,,,,,,,1,,2023-09-27_15h43.26.517,Motor_Task,2023.2.2,MacIntel,60.0024001,64.8249,65.2726,1,1,0.4463,,9,4,94,4,1,5,I,,1,,,,,,,
,,,,,,,,,,1,,2023-09-27_15h43.26.517,Motor_Task,2023.2.2,MacIntel,60.0024001,65.2729,65.8061,1,1,0.5297,,9,5,95,5,1,6,I,,1,,,,,,,
,,,,,,,,,,1,,2023-09-27_15h43.26.517,Motor_Task,2023.2.2,MacIntel,60.0024001,65.8064,66.3231,3,1,0.513,,9,6,96,6,1,7,R,,3,,,,,,,
,,,,,,,,,,1,,2023-09-27_15h43.26.517,Motor_Task,2023.2.2,MacIntel,60.0024001,66.3233,66.8062,2,1,0.4794,,9,7,97,7,1,8,M,,2,,,,,,,
,,,,,,,,,,1,,2023-09-27_15h43.26.517,Motor_Task,2023.2.2,MacIntel,60.0024001,66.8064,67.3233,4,1,0.5137,,9,8,98,8,1,9,L,,4,,,,,,,
,,,,,,,,,,1,,2023-09-27_15h43.26.517,Motor_Task,2023.2.2,MacIntel,60.0024001,67.3234,67.8231,1,1,0.4967,,9,9,99,9,1,10,I,,1,,,,,,,
,,,,,,,,,,1,,2023-09-27_15h43.26.517,Motor_Task,2023.2.2,MacIntel,60.0024001,67.8233,68.3068,2,1,0.4787,,10,0,100,0,1,1,M,,2,,,,,,,
,,,,,,,,,,1,,2023-09-27_15h43.26.517,Motor_Task,2023.2.2,MacIntel,60.0024001,68.307,68.7725,3,1,0.4644,,10,1,101,1,1,2,R,,3,,,,,,,
,,,,,,,,,,1,,2023-09-27_15h43.26.517,Motor_Task,2023.2.2,MacIntel,60.0024001,68.7729,69.2567,2,1,0.4808,,10,2,102,2,1,3,M,,2,,,,,,,
,,,,,,,,,,1,,2023-09-27_15h43.26.517,Motor_Task,2023.2.2,MacIntel,60.0024001,69.2569,69.7066,3,1,0.4464,,10,3,103,3,1,4,R,,3,,,,,,,
,,,,,,,,,,1,,2023-09-27_15h43.26.517,Motor_Task,2023.2.2,MacIntel,60.0024001,69.7068,70.2231,1,1,0.5134,,10,4,104,4,1,5,I,,1,,,,,,,
,,,,,,,,,,1,,2023-09-27_15h43.26.517,Motor_Task,2023.2.2,MacIntel,60.0024001,70.2234,70.6894,1,1,0.4644,,10,5,105,5,1,6,I,,1,,,,,,,
,,,,,,,,,,1,,2023-09-27_15h43.26.517,Motor_Task,2023.2.2,MacIntel,60.0024001,70.6897,71.1894,3,1,0.4971,,10,6,106,6,1,7,R,,3,,,,,,,
,,,,,,,,,,1,,2023-09-27_15h43.26.517,Motor_Task,2023.2.2,MacIntel,60.0024001,71.1896,71.6896,2,1,0.4961,,10,7,107,7,1,8,M,,2,,,,,,,
,,,,,,,,,,1,,2023-09-27_15h43.26.517,Motor_Task,2023.2.2,MacIntel,60.0024001,71.6898,72.1562,4,1,0.4634,,10,8,108,8,1,9,L,,4,,,,,,,
,,,,,,,,,,1,,2023-09-27_15h43.26.517,Motor_Task,2023.2.2,MacIntel,60.0024001,72.1564,72.6728,1,1,0.5137,,10,9,109,9,1,10,I,,1,,,,,,,
,,,,,,,,,,1,,2023-09-27_15h43.26.517,Motor_Task,2023.2.2,MacIntel,60.0024001,72.673,73.0727,1,0,0.3969,,11,0,110,0,1,1,M,,2,,,,,,,
,,,,,,,,,,1,,2023-09-27_15h43.26.517,Motor_Task,2023.2.2,MacIntel,60.0024001,73.073,73.7729,3,1,0.6963,,11,1,111,1,1,2,R,,3,,,,,,,
,,,,,,,,,,1,,2023-09-27_15h43.26.517,Motor_Task,2023.2.2,MacIntel,60.0024001,73.7731,74.2729,2,1,0.497,,11,2,112,2,1,3,M,,2,,,,,,,
,,,,,,,,,,1,,2023-09-27_15h43.26.517,Motor_Task,2023.2.2,MacIntel,60.0024001,74.2731,74.889,3,1,0.6125,,11,3,113,3,1,4,R,,3,,,,,,,
,,,,,,,,,,1,,2023-09-27_15h43.26.517,Motor_Task,2023.2.2,MacIntel,60.0024001,74.8893,75.3406,1,1,0.447,,11,4,114,4,1,5,I,,1,,,,,,,
,,,,,,,,,,1,,2023-09-27_15h43.26.517,Motor_Task,2023.2.2,MacIntel,60.0024001,75.3412,75.9223,1,1,0.5782,,11,5,115,5,1,6,I,,1,,,,,,,
,,,,,,,,,,1,,2023-09-27_15h43.26.517,Motor_Task,2023.2.2,MacIntel,60.0024001,75.9225,76.3893,3,1,0.4647,,11,6,116,6,1,7,R,,3,,,,,,,
,,,,,,,,,,1,,2023-09-27_15h43.26.517,Motor_Task,2023.2.2,MacIntel,60.0024001,76.3896,76.856,2,1,0.4637,,11,7,117,7,1,8,M,,2,,,,,,,
,,,,,,,,,,1,,2023-09-27_15h43.26.517,Motor_Task,2023.2.2,MacIntel,60.0024001,76.8562,77.3893,4,1,0.5306,,11,8,118,8,1,9,L,,4,,,,,,,
,,,,,,,,,,1,,2023-09-27_15h43.26.517,Motor_Task,2023.2.2,MacIntel,60.0024001,77.3896,77.8726,1,1,0.4803,,11,9,119,9,1,10,I,,1,,,,,,,
,,,,,,,,,,1,,2023-09-27_15h43.26.517,Motor_Task,2023.2.2,MacIntel,60.0024001,77.8729,78.406,2,1,0.5305,,12,0,120,0,1,1,M,,2,,,,,,,
,,,,,,,,,,1,,2023-09-27_15h43.26.517,Motor_Task,2023.2.2,MacIntel,60.0024001,78.4062,78.8893,3,1,0.4801,,12,1,121,1,1,2,R,,3,,,,,,,
,,,,,,,,,,1,,2023-09-27_15h43.26.517,Motor_Task,2023.2.2,MacIntel,60.0024001,78.8895,79.3892,2,1,0.4968,,12,2,122,2,1,3,M,,2,,,,,,,
,,,,,,,,,,1,,2023-09-27_15h43.26.517,Motor_Task,2023.2.2,MacIntel,60.0024001,79.3895,79.8893,3,1,0.4969,,12,3,123,3,1,4,R,,3,,,,,,,
,,,,,,,,,,1,,2023-09-27_15h43.26.517,Motor_Task,2023.2.2,MacIntel,60.0024001,79.8895,80.3753,1,1,0.4835,,12,4,124,4,1,5,I,,1,,,,,,,
,,,,,,,,,,1,,2023-09-27_15h43.26.517,Motor_Task,2023.2.2,MacIntel,60.0024001,80.3755,80.8919,1,1,0.5117,,12,5,125,5,1,6,I,,1,,,,,,,
,,,,,,,,,,1,,2023-09-27_15h43.26.517,Motor_Task,2023.2.2,MacIntel,60.0024001,80.8922,81.3752,3,1,0.4811,,12,6,126,6,1,7,R,,3,,,,,,,
,,,,,,,,,,1,,2023-09-27_15h43.26.517,Motor_Task,2023.2.2,MacIntel,60.0024001,81.3755,81.8419,2,1,0.4616,,12,7,127,7,1,8,M,,2,,,,,,,
,,,,,,,,,,1,,2023-09-27_15h43.26.517,Motor_Task,2023.2.2,MacIntel,60.0024001,81.8422,82.3255,4,1,0.4798,,12,8,128,8,1,9,L,,4,,,,,,,
,,,,,,,,,,1,,2023-09-27_15h43.26.517,Motor_Task,2023.2.2,MacIntel,60.0024001,82.3258,82.8393,1,1,0.5111,,12,9,129,9,1,10,I,,1,,,,,,,
,,,,,,,,,,1,,2023-09-27_15h43.26.517,Motor_Task,2023.2.2,MacIntel,60.0024001,82.8398,83.5256,2,1,0.6806,,13,0,130,0,1,1,M,,2,,,,,,,
,,,,,,,,,,1,,2023-09-27_15h43.26.517,Motor_Task,2023.2.2,MacIntel,60.0024001,83.526,83.9916,3,1,0.461,,13,1,131,1,1,2,R,,3,,,,,,,
,,,,,,,,,,1,,2023-09-27_15h43.26.517,Motor_Task,2023.2.2,MacIntel,60.0024001,83.9919,84.5085,2,1,0.5116,,13,2,132,2,1,3,M,,2,,,,,,,
,,,,,,,,,,1,,2023-09-27_15h43.26.517,Motor_Task,2023.2.2,MacIntel,60.0024001,84.5087,85.0589,3,1,0.5481,,13,3,133,3,1,4,R,,3,,,,,,,
,,,,,,,,,,1,,2023-09-27_15h43.26.517,Motor_Task,2023.2.2,MacIntel,60.0024001,85.0591,85.608,1,1,0.5447,,13,4,134,4,1,5,I,,1,,,,,,,
,,,,,,,,,,1,,2023-09-27_15h43.26.517,Motor_Task,2023.2.2,MacIntel,60.0024001,85.6084,86.1727,3,0,0.5617,,13,5,135,5,1,6,I,,1,,,,,,,
,,,,,,,,,,1,,2023-09-27_15h43.26.517,Motor_Task,2023.2.2,MacIntel,60.0024001,86.1731,86.8586,3,1,0.6806,,13,6,136,6,1,7,R,,3,,,,,,,
,,,,,,,,,,1,,2023-09-27_15h43.26.517,Motor_Task,2023.2.2,MacIntel,60.0024001,86.8589,87.5731,2,1,0.7116,,13,7,137,7,1,8,M,,2,,,,,,,
,,,,,,,,,,1,,2023-09-27_15h43.26.517,Motor_Task,2023.2.2,MacIntel,60.0024001,87.5734,88.1418,4,1,0.5635,,13,8,138,8,1,9,L,,4,,,,,,,
,,,,,,,,,,1,,2023-09-27_15h43.26.517,Motor_Task,2023.2.2,MacIntel,60.0024001,88.1421,88.6254,1,1,0.481,,13,9,139,9,1,10,I,,1,,,,,,,
,,,,,,,,,,1,,2023-09-27_15h43.26.517,Motor_Task,2023.2.2,MacIntel,60.0024001,88.6257,89.156,2,1,0.5288,,14,0,140,0,1,1,M,,2,,,,,,,
,,,,,,,,,,1,,2023-09-27_15h43.26.517,Motor_Task,2023.2.2,MacIntel,60.0024001,89.1562,89.6227,3,1,0.464,,14,1,141,1,1,2,R,,3,,,,,,,
,,,,,,,,,,1,,2023-09-27_15h43.26.517,Motor_Task,2023.2.2,MacIntel,60.0024001,89.623,90.1225,2,1,0.4981,,14,2,142,2,1,3,M,,2,,,,,,,
,,,,,,,,,,1,,2023-09-27_15h43.26.517,Motor_Task,2023.2.2,MacIntel,60.0024001,90.1229,90.7421,3,1,0.6149,,14,3,143,3,1,4,R,,3,,,,,,,
,,,,,,,,,,1,,2023-09-27_15h43.26.517,Motor_Task,2023.2.2,MacIntel,60.0024001,90.7424,91.2408,1,1,0.4964,,14,4,144,4,1,5,I,,1,,,,,,,
,,,,,,,,,,1,,2023-09-27_15h43.26.517,Motor_Task,2023.2.2,MacIntel,60.0024001,91.2414,91.741,1,1,0.4971,,14,5,145,5,1,6,I,,1,,,,,,,
,,,,,,,,,,1,,2023-09-27_15h43.26.517,Motor_Task,2023.2.2,MacIntel,60.0024001,91.7417,92.2395,3,1,0.4956,,14,6,146,6,1,7,R,,3,,,,,,,
,,,,,,,,,,1,,2023-09-27_15h43.26.517,Motor_Task,2023.2.2,MacIntel,60.0024001,92.2399,92.7247,2,1,0.4807,,14,7,147,7,1,8,M,,2,,,,,,,
,,,,,,,,,,1,,2023-09-27_15h43.26.517,Motor_Task,2023.2.2,MacIntel,60.0024001,92.725,93.2246,4,1,0.4952,,14,8,148,8,1,9,L,,4,,,,,,,
,,,,,,,,,,1,,2023-09-27_15h43.26.517,Motor_Task,2023.2.2,MacIntel,60.0024001,93.225,93.7085,1,1,0.4783,,14,9,149,9,1,10,I,,1,,,,,,,
,,,,,,,,,,1,,2023-09-27_15h43.26.517,Motor_Task,2023.2.2,MacIntel,60.0024001,93.7088,94.2896,2,1,0.578,,15,0,150,0,1,1,M,,2,,,,,,,
,,,,,,,,,,1,,2023-09-27_15h43.26.517,Motor_Task,2023.2.2,MacIntel,60.0024001,94.2898,94.7748,3,1,0.4804,,15,1,151,1,1,2,R,,3,,,,,,,
,,,,,,,,,,1,,2023-09-27_15h43.26.517,Motor_Task,2023.2.2,MacIntel,60.0024001,94.7751,95.2929,2,1,0.5175,,15,2,152,2,1,3,M,,2,,,,,,,
,,,,,,,,,,1,,2023-09-27_15h43.26.517,Motor_Task,2023.2.2,MacIntel,60.0024001,95.293,95.7926,3,1,0.4941,,15,3,153,3,1,4,R,,3,,,,,,,
,,,,,,,,,,1,,2023-09-27_15h43.26.517,Motor_Task,2023.2.2,MacIntel,60.0024001,95.793,96.2919,2,0,0.4947,,15,4,154,4,1,5,I,,1,,,,,,,
,,,,,,,,,,1,,2023-09-27_15h43.26.517,Motor_Task,2023.2.2,MacIntel,60.0024001,96.2923,96.9082,1,1,0.6113,,15,5,155,5,1,6,I,,1,,,,,,,
,,,,,,,,,,1,,2023-09-27_15h43.26.517,Motor_Task,2023.2.2,MacIntel,60.0024001,96.9086,97.408,3,1,0.495,,15,6,156,6,1,7,R,,3,,,,,,,
,,,,,,,,,,1,,2023-09-27_15h43.26.517,Motor_Task,2023.2.2,MacIntel,60.0024001,97.4084,97.9232,2,1,0.5115,,15,7,157,7,1,8,M,,2,,,,,,,
,,,,,,,,,,1,,2023-09-27_15h43.26.517,Motor_Task,2023.2.2,MacIntel,60.0024001,97.9234,98.4748,4,1,0.5469,,15,8,158,8,1,9,L,,4,,,,,,,
,,,,,,,,,,1,,2023-09-27_15h43.26.517,Motor_Task,2023.2.2,MacIntel,60.0024001,98.4751,99.09,1,1,0.6121,,15,9,159,9,1,10,I,,1,,,,,,,
,,,,,,,,,,1,,2023-09-27_15h43.26.517,Motor_Task,2023.2.2,MacIntel,60.0024001,99.0903,99.6422,2,1,0.547,,16,0,160,0,1,1,M,,2,,,,,,,
,,,,,,,,,,1,,2023-09-27_15h43.26.517,Motor_Task,2023.2.2,MacIntel,60.0024001,99.6424,100.2391,3,1,0.5946,,16,1,161,1,1,2,R,,3,,,,,,,
,,,,,,,,,,1,,2023-09-27_15h43.26.517,Motor_Task,2023.2.2,MacIntel,60.0024001,100.2395,100.7898,2,1,0.5489,,16,2,162,2,1,3,M,,2,,,,,,,
,,,,,,,,,,1,,2023-09-27_15h43.26.517,Motor_Task,2023.2.2,MacIntel,60.0024001,100.79,101.3083,3,1,0.5131,,16,3,163,3,1,4,R,,3,,,,,,,
,,,,,,,,,,1,,2023-09-27_15h43.26.517,Motor_Task,2023.2.2,MacIntel,60.0024001,101.3085,101.808,1,1,0.4953,,16,4,164,4,1,5,I,,1,,,,,,,
,,,,,,,,,,1,,2023-09-27_15h43.26.517,Motor_Task,2023.2.2,MacIntel,60.0024001,101.8084,102.3234,1,1,0.5122,,16,5,165,5,1,6,I,,1,,,,,,,
,,,,,,,,,,1,,2023-09-27_15h43.26.517,Motor_Task,2023.2.2,MacIntel,60.0024001,102.3236,102.8059,3,1,0.4801,,16,6,166,6,1,7,R,,3,,,,,,,
,,,,,,,,,,1,,2023-09-27_15h43.26.517,Motor_Task,2023.2.2,MacIntel,60.0024001,102.8063,103.2892,2,1,0.4803,,16,7,167,7,1,8,M,,2,,,,,,,
,,,,,,,,,,1,,2023-09-27_15h43.26.517,Motor_Task,2023.2.2,MacIntel,60.0024001,103.2898,103.8087,4,1,0.5134,,16,8,168,8,1,9,L,,4,,,,,,,
,,,,,,,,,,1,,2023-09-27_15h43.26.517,Motor_Task,2023.2.2,MacIntel,60.0024001,103.809,104.2916,1,1,0.4777,,16,9,169,9,1,10,I,,1,,,,,,,
,,,,,,,,,,1,,2023-09-27_15h43.26.517,Motor_Task,2023.2.2,MacIntel,60.0024001,104.292,104.8392,2,1,0.5445,,17,0,170,0,1,1,M,,2,,,,,,,
,,,,,,,,,,1,,2023-09-27_15h43.26.517,Motor_Task,2023.2.2,MacIntel,60.0024001,104.8397,105.3578,3,1,0.5129,,17,1,171,1,1,2,R,,3,,,,,,,
,,,,,,,,,,1,,2023-09-27_15h43.26.517,Motor_Task,2023.2.2,MacIntel,60.0024001,105.3583,105.9082,2,1,0.5452,,17,2,172,2,1,3,M,,2,,,,,,,
,,,,,,,,,,1,,2023-09-27_15h43.26.517,Motor_Task,2023.2.2,MacIntel,60.0024001,105.9084,106.4734,3,1,0.5616,,17,3,173,3,1,4,R,,3,,,,,,,
,,,,,,,,,,1,,2023-09-27_15h43.26.517,Motor_Task,2023.2.2,MacIntel,60.0024001,106.4737,106.9567,1,1,0.48,,17,4,174,4,1,5,I,,1,,,,,,,
,,,,,,,,,,1,,2023-09-27_15h43.26.517,Motor_Task,2023.2.2,MacIntel,60.0024001,106.9573,107.456,1,1,0.4983,,17,5,175,5,1,6,I,,1,,,,,,,
,,,,,,,,,,1,,2023-09-27_15h43.26.517,Motor_Task,2023.2.2,MacIntel,60.0024001,107.4562,108.0741,3,1,0.6135,,17,6,176,6,1,7,R,,3,,,,,,,
,,,,,,,,,,1,,2023-09-27_15h43.26.517,Motor_Task,2023.2.2,MacIntel,60.0024001,108.0747,108.559,2,1,0.4785,,17,7,177,7,1,8,M,,2,,,,,,,
,,,,,,,,,,1,,2023-09-27_15h43.26.517,Motor_Task,2023.2.2,MacIntel,60.0024001,108.5591,109.0749,4,1,0.5129,,17,8,178,8,1,9,L,,4,,,,,,,
,,,,,,,,,,1,,2023-09-27_15h43.26.517,Motor_Task,2023.2.2,MacIntel,60.0024001,109.0753,109.5745,1,1,0.4949,,17,9,179,9,1,10,I,,1,,,,,,,
,,,,,,,,,,1,,2023-09-27_15h43.26.517,Motor_Task,2023.2.2,MacIntel,60.0024001,109.5748,110.1894,2,1,0.6125,,18,0,180,0,1,1,M,,2,,,,,,,
,,,,,,,,,,1,,2023-09-27_15h43.26.517,Motor_Task,2023.2.2,MacIntel,60.0024001,110.1896,110.741,3,1,0.5472,,18,1,181,1,1,2,R,,3,,,,,,,
,,,,,,,,,,1,,2023-09-27_15h43.26.517,Motor_Task,2023.2.2,MacIntel,60.0024001,110.7415,111.4743,2,1,0.7288,,18,2,182,2,1,3,M,,2,,,,,,,
,,,,,,,,,,1,,2023-09-27_15h43.26.517,Motor_Task,2023.2.2,MacIntel,60.0024001,111.4748,112.0888,3,1,0.6127,,18,3,183,3,1,4,R,,3,,,,,,,
,,,,,,,,,,1,,2023-09-27_15h43.26.517,Motor_Task,2023.2.2,MacIntel,60.0024001,112.0892,112.6081,1,1,0.5139,,18,4,184,4,1,5,I,,1,,,,,,,
,,,,,,,,,,1,,2023-09-27_15h43.26.517,Motor_Task,2023.2.2,MacIntel,60.0024001,112.6084,113.1219,1,1,0.5115,,18,5,185,5,1,6,I,,1,,,,,,,
,,,,,,,,,,1,,2023-09-27_15h43.26.517,Motor_Task,2023.2.2,MacIntel,60.0024001,113.1224,113.6217,3,1,0.4971,,18,6,186,6,1,7,R,,3,,,,,,,
,,,,,,,,,,1,,2023-09-27_15h43.26.517,Motor_Task,2023.2.2,MacIntel,60.0024001,113.6222,114.108,2,1,0.4813,,18,7,187,7,1,8,M,,2,,,,,,,
,,,,,,,,,,1,,2023-09-27_15h43.26.517,Motor_Task,2023.2.2,MacIntel,60.0024001,114.1083,114.6419,4,1,0.528,,18,8,188,8,1,9,L,,4,,,,,,,
,,,,,,,,,,1,,2023-09-27_15h43.26.517,Motor_Task,2023.2.2,MacIntel,60.0024001,114.6422,115.2078,1,1,0.5614,,18,9,189,9,1,10,I,,1,,,,,,,
,,,,,,,,,,1,,2023-09-27_15h43.26.517,Motor_Task,2023.2.2,MacIntel,60.0024001,115.2082,115.7582,2,1,0.5453,,19,0,190,0,1,1,M,,2,,,,,,,
,,,,,,,,,,1,,2023-09-27_15h43.26.517,Motor_Task,2023.2.2,MacIntel,60.0024001,115.7585,116.2566,3,1,0.495,,19,1,191,1,1,2,R,,3,,,,,,,
,,,,,,,,,,1,,2023-09-27_15h43.26.517,Motor_Task,2023.2.2,MacIntel,60.0024001,116.257,116.7744,2,1,0.5129,,19,2,192,2,1,3,M,,2,,,,,,,
,,,,,,,,,,1,,2023-09-27_15h43.26.517,Motor_Task,2023.2.2,MacIntel,60.0024001,116.7748,117.4065,2,0,0.6288,,19,3,193,3,1,4,R,,3,,,,,,,
,,,,,,,,,,1,,2023-09-27_15h43.26.517,Motor_Task,2023.2.2,MacIntel,60.0024001,117.4068,118.2071,1,1,0.7983,,19,4,194,4,1,5,I,,1,,,,,,,
,,,,,,,,,,1,,2023-09-27_15h43.26.517,Motor_Task,2023.2.2,MacIntel,60.0024001,118.2076,118.7892,1,1,0.5796,,19,5,195,5,1,6,I,,1,,,,,,,
,,,,,,,,,,1,,2023-09-27_15h43.26.517,Motor_Task,2023.2.2,MacIntel,60.0024001,118.7894,119.341,3,1,0.5473,,19,6,196,6,1,7,R,,3,,,,,,,
,,,,,,,,,,1,,2023-09-27_15h43.26.517,Motor_Task,2023.2.2,MacIntel,60.0024001,119.3414,119.8581,2,1,0.5119,,19,7,197,7,1,8,M,,2,,,,,,,
,,,,,,,,,,1,,2023-09-27_15h43.26.517,Motor_Task,2023.2.2,MacIntel,60.0024001,119.8585,120.4058,4,1,0.5444,,19,8,198,8,1,9,L,,4,,,,,,,
,,,,,,,,,,1,,2023-09-27_15h43.26.517,Motor_Task,2023.2.2,MacIntel,60.0024001,120.4061,120.9247,1,1,0.5141,,19,9,199,9,1,10,I,,1,,,,,,,
,,,,,,,,,,1,,2023-09-27_15h43.26.517,Motor_Task,2023.2.2,MacIntel,60.0024001,120.9318,121.5911,2,1,0.6549,,,,,,,1,M,,2,0,0,0,0,1,,
,,,,,,,,,,1,,2023-09-27_15h43.26.517,Motor_Task,2023.2.2,MacIntel,60.0024001,121.5916,122.3392,4,1,0.7449,,,,,,,9,L,,4,0,1,1,8,1,,
,,,,,,,,,,1,,2023-09-27_15h43.26.517,Motor_Task,2023.2.2,MacIntel,60.0024001,122.3395,122.9909,3,1,0.6475,,,,,,,2,R,,3,0,2,2,1,1,,
,,,,,,,,,,1,,2023-09-27_15h43.26.517,Motor_Task,2023.2.2,MacIntel,60.0024001,122.9913,123.691,1,1,0.696,,,,,,,10,I,,1,0,3,3,9,1,,
,,,,,,,,,,1,,2023-09-27_15h43.26.517,Motor_Task,2023.2.2,MacIntel,60.0024001,123.6914,124.255,3,1,0.5619,,,,,,,7,R,,3,0,4,4,6,1,,
,,,,,,,,,,1,,2023-09-27_15h43.26.517,Motor_Task,2023.2.2,MacIntel,60.0024001,124.2555,124.739,2,1,0.4806,,,,,,,8,M,,2,0,5,5,7,1,,
,,,,,,,,,,1,,2023-09-27_15h43.26.517,Motor_Task,2023.2.2,MacIntel,60.0024001,124.7392,125.3746,1,1,0.6301,,,,,,,6,I,,1,0,6,6,5,1,,
,,,,,,,,,,1,,2023-09-27_15h43.26.517,Motor_Task,2023.2.2,MacIntel,60.0024001,125.3748,125.8915,3,1,0.5115,,,,,,,4,R,,3,0,7,7,3,1,,
,,,,,,,,,,1,,2023-09-27_15h43.26.517,Motor_Task,2023.2.2,MacIntel,60.0024001,125.8918,126.5555,1,1,0.6614,,,,,,,5,I,,1,0,8,8,4,1,,
,,,,,,,,,,1,,2023-09-27_15h43.26.517,Motor_Task,2023.2.2,MacIntel,60.0024001,126.5558,127.2079,2,1,0.6475,,,,,,,3,M,,2,0,9,9,2,1,,
,,,,,,,,,,1,,2023-09-27_15h43.26.517,Motor_Task,2023.2.2,MacIntel,60.0024001,127.2082,127.7078,3,1,0.4964,,,,,,,4,R,,3,1,0,10,3,1,,
,,,,,,,,,,1,,2023-09-27_15h43.26.517,Motor_Task,2023.2.2,MacIntel,60.0024001,127.7081,128.2413,2,1,0.528,,,,,,,1,M,,2,1,1,11,0,1,,
,,,,,,,,,,1,,2023-09-27_15h43.26.517,Motor_Task,2023.2.2,MacIntel,60.0024001,128.2416,128.7414,3,1,0.4948,,,,,,,2,R,,3,1,2,12,1,1,,
,,,,,,,,,,1,,2023-09-27_15h43.26.517,Motor_Task,2023.2.2,MacIntel,60.0024001,128.7417,129.3912,4,1,0.6446,,,,,,,9,L,,4,1,3,13,8,1,,
,,,,,,,,,,1,,2023-09-27_15h43.26.517,Motor_Task,2023.2.2,MacIntel,60.0024001,129.3916,129.9382,1,0,0.5452,,,,,,,3,M,,2,1,4,14,2,1,,
,,,,,,,,,,1,,2023-09-27_15h43.26.517,Motor_Task,2023.2.2,MacIntel,60.0024001,129.9384,130.489,3,1,0.5482,,,,,,,7,R,,3,1,5,15,6,1,,
,,,,,,,,,,1,,2023-09-27_15h43.26.517,Motor_Task,2023.2.2,MacIntel,60.0024001,130.4894,131.0246,1,1,0.5305,,,,,,,10,I,,1,1,6,16,9,1,,
,,,,,,,,,,1,,2023-09-27_15h43.26.517,Motor_Task,2023.2.2,MacIntel,60.0024001,131.025,131.5742,1,1,0.5451,,,,,,,5,I,,1,1,7,17,4,1,,
,,,,,,,,,,1,,2023-09-27_15h43.26.517,Motor_Task,2023.2.2,MacIntel,60.0024001,131.5745,132.1248,2,1,0.5465,,,,,,,8,M,,2,1,8,18,7,1,,
,,,,,,,,,,1,,2023-09-27_15h43.26.517,Motor_Task,2023.2.2,MacIntel,60.0024001,132.1251,132.7417,1,1,0.6106,,,,,,,6,I,,1,1,9,19,5,1,,
,,,,,,,,,,1,,2023-09-27_15h43.26.517,Motor_Task,2023.2.2,MacIntel,60.0024001,132.7421,133.3076,2,1,0.5625,,,,,,,3,M,,2,2,0,20,2,1,,
,,,,,,,,,,1,,2023-09-27_15h43.26.517,Motor_Task,2023.2.2,MacIntel,60.0024001,133.3078,133.9732,2,1,0.6623,,,,,,,1,M,,2,2,1,21,0,1,,
,,,,,,,,,,1,,2023-09-27_15h43.26.517,Motor_Task,2023.2.2,MacIntel,60.0024001,133.9739,134.5248,1,1,0.546,,,,,,,6,I,,1,2,2,22,5,1,,
,,,,,,,,,,1,,2023-09-27_15h43.26.517,Motor_Task,2023.2.2,MacIntel,60.0024001,134.525,135.0576,2,1,0.5289,,,,,,,8,M,,2,2,3,23,7,1,,
,,,,,,,,,,1,,2023-09-27_15h43.26.517,Motor_Task,2023.2.2,MacIntel,60.0024001,135.058,135.7557,4,1,0.6957,,,,,,,9,L,,4,2,4,24,8,1,,
,,,,,,,,,,1,,2023-09-27_15h43.26.517,Motor_Task,2023.2.2,MacIntel,60.0024001,135.7559,136.2913,3,1,0.5306,,,,,,,7,R,,3,2,5,25,6,1,,
,,,,,,,,,,1,,2023-09-27_15h43.26.517,Motor_Task,2023.2.2,MacIntel,60.0024001,136.2916,136.858,3,1,0.5642,,,,,,,4,R,,3,2,6,26,3,1,,
,,,,,,,,,,1,,2023-09-27_15h43.26.517,Motor_Task,2023.2.2,MacIntel,60.0024001,136.8583,137.4054,1,1,0.5444,,,,,,,5,I,,1,2,7,27,4,1,,
,,,,,,,,,,1,,2023-09-27_15h43.26.517,Motor_Task,2023.2.2,MacIntel,60.0024001,137.4059,137.9248,1,1,0.5136,,,,,,,10,I,,1,2,8,28,9,1,,
,,,,,,,,,,1,,2023-09-27_15h43.26.517,Motor_Task,2023.2.2,MacIntel,60.0024001,137.9251,138.4717,3,1,0.5447,,,,,,,2,R,,3,2,9,29,1,1,,
,,,,,,,,,,1,,2023-09-27_15h43.26.517,Motor_Task,2023.2.2,MacIntel,60.0024001,138.4721,139.0409,3,1,0.5642,,,,,,,7,R,,3,3,0,30,6,1,,
,,,,,,,,,,1,,2023-09-27_15h43.26.517,Motor_Task,2023.2.2,MacIntel,60.0024001,139.0412,139.6412,3,1,0.5962,,,,,,,4,R,,3,3,1,31,3,1,,
,,,,,,,,,,1,,2023-09-27_15h43.26.517,Motor_Task,2023.2.2,MacIntel,60.0024001,139.6415,140.2231,1,1,0.5783,,,,,,,6,I,,1,3,2,32,5,1,,
,,,,,,,,,,1,,2023-09-27_15h43.26.517,Motor_Task,2023.2.2,MacIntel,60.0024001,140.2239,140.9908,4,1,0.7625,,,,,,,9,L,,4,3,3,33,8,1,,
,,,,,,,,,,1,,2023-09-27_15h43.26.517,Motor_Task,2023.2.2,MacIntel,60.0024001,140.9911,141.5387,1,1,0.546,,,,,,,5,I,,1,3,4,34,4,1,,
,,,,,,,,,,1,,2023-09-27_15h43.26.517,Motor_Task,2023.2.2,MacIntel,60.0024001,141.5392,142.072,1,1,0.5301,,,,,,,10,I,,1,3,5,35,9,1,,
,,,,,,,,,,1,,2023-09-27_15h43.26.517,Motor_Task,2023.2.2,MacIntel,60.0024001,142.0725,142.6244,3,1,0.5468,,,,,,,2,R,,3,3,6,36,1,1,,
,,,,,,,,,,1,,2023-09-27_15h43.26.517,Motor_Task,2023.2.2,MacIntel,60.0024001,142.6248,143.1224,2,1,0.4962,,,,,,,1,M,,2,3,7,37,0,1,,
,,,,,,,,,,1,,2023-09-27_15h43.26.517,Motor_Task,2023.2.2,MacIntel,60.0024001,143.1227,143.6391,2,1,0.5152,,,,,,,3,M,,2,3,8,38,2,1,,
,,,,,,,,,,1,,2023-09-27_15h43.26.517,Motor_Task,2023.2.2,MacIntel,60.0024001,143.6392,144.189,2,1,0.5475,,,,,,,8,M,,2,3,9,39,7,1,,
,,,,,,,,,,1,,2023-09-27_15h43.26.517,Motor_Task,2023.2.2,MacIntel,60.0024001,144.1892,144.7395,1,1,0.549,,,,,,,5,I,,1,4,0,40,4,1,,
,,,,,,,,,,1,,2023-09-27_15h43.26.517,Motor_Task,2023.2.2,MacIntel,60.0024001,144.7401,145.3253,2,1,0.5791,,,,,,,8,M,,2,4,1,41,7,1,,
,,,,,,,,,,1,,2023-09-27_15h43.26.517,Motor_Task,2023.2.2,MacIntel,60.0024001,145.3255,145.9549,1,1,0.627,,,,,,,10,I,,1,4,2,42,9,1,,
,,,,,,,,,,1,,2023-09-27_15h43.26.517,Motor_Task,2023.2.2,MacIntel,60.0024001,145.9552,146.5056,2,1,0.5484,,,,,,,1,M,,2,4,3,43,0,1,,
,,,,,,,,,,1,,2023-09-27_15h43.26.517,Motor_Task,2023.2.2,MacIntel,60.0024001,146.5059,147.0398,3,1,0.5302,,,,,,,2,R,,3,4,4,44,1,1,,
,,,,,,,,,,1,,2023-09-27_15h43.26.517,Motor_Task,2023.2.2,MacIntel,60.0024001,147.0408,147.6071,1,1,0.5641,,,,,,,6,I,,1,4,5,45,5,1,,
,,,,,,,,,,1,,2023-09-27_15h43.26.517,Motor_Task,2023.2.2,MacIntel,60.0024001,147.6075,148.2409,3,1,0.6295,,,,,,,4,R,,3,4,6,46,3,1,,
,,,,,,,,,,1,,2023-09-27_15h43.26.517,Motor_Task,2023.2.2,MacIntel,60.0024001,148.241,148.7714,2,1,0.528,,,,,,,3,M,,2,4,7,47,2,1,,
,,,,,,,,,,1,,2023-09-27_15h43.26.517,Motor_Task,2023.2.2,MacIntel,60.0024001,148.7716,149.341,4,1,0.5642,,,,,,,9,L,,4,4,8,48,8,1,,
,,,,,,,,,,1,,2023-09-27_15h43.26.517,Motor_Task,2023.2.2,MacIntel,60.0024001,149.3412,149.9073,3,1,0.5615,,,,,,,7,R,,3,4,9,49,6,1,,
,,,,,,,,,,1,,2023-09-27_15h43.26.517,Motor_Task,2023.2.2,MacIntel,60.0024001,,,,,,,,,,,,,,,,,,,,,149.9078,153.9077